t,ax,ay,az
0.0,0.88047,-5.77691,-7.99184
0.01004,0.86775,-5.79217,-8.03045
0.02008,0.81552,-5.85278,-8.13176
0.03011,0.75642,-5.87268,-8.11874
0.04015,0.67053,-5.89782,-8.08088
0.05019,0.63162,-5.91562,-8.03629
0.06023,0.62773,-5.93328,-7.92556
0.07026,0.61875,-5.97997,-7.83039
0.0803,0.59197,-6.01005,-7.82156
0.09034,0.56339,-5.9879,-7.85912
0.10038,0.62459,-5.90799,-7.84789
0.11041,0.7241,-5.8206,-7.73073
0.12045,0.85877,-5.76209,-7.60743
0.13049,0.92925,-5.75431,-7.62029
0.14053,0.98641,-5.70299,-7.7026
0.15057,0.99928,-5.64897,-7.7843
0.1606,0.96786,-5.65899,-7.82096
0.17064,0.97235,-5.66064,-7.8244
0.18068,0.98491,-5.67411,-7.88964
0.19072,0.93763,-5.68039,-8.04197
0.20075,0.89289,-5.65466,-8.13071
0.21079,0.91249,-5.62054,-8.10841
0.22083,0.97369,-5.6138,-8.03883
0.23087,1.04821,-5.6159,-7.9887
0.2409,1.09505,-5.60408,-7.9501
0.25094,1.12632,-5.54826,-7.97374
0.26098,1.14877,-5.51534,-7.95608
0.27102,1.15341,-5.52896,-7.93798
0.28105,1.15026,-5.58612,-7.90027
0.29109,1.10941,-5.65316,-7.8877
0.30113,1.07096,-5.67531,-7.88141
0.31117,1.06048,-5.70209,-7.83892
0.3212,1.04806,-5.72633,-7.78624
0.33124,1.04223,-5.75357,-7.78564
0.34128,1.06452,-5.76329,-7.85433
0.35132,1.10373,-5.76269,-7.93603
0.36136,1.15356,-5.72573,-7.95937
0.37139,1.15834,-5.67875,-7.95758
0.38143,1.16523,-5.61934,-7.98242
0.39147,1.09176,-5.61141,-8.09465
0.4015,1.01125,-5.66722,-8.17291
0.41154,0.97429,-5.75985,-8.10647
0.42158,0.97145,-5.81342,-8.02073
0.43162,1.012,-5.8417,-7.91493
0.44166,1.00826,-5.88719,-7.83936
0.45169,1.03325,-5.88854,-7.80121
0.46173,1.09265,-5.89976,-7.70589
0.47177,1.10672,-5.9062,-7.66863
0.48181,1.0723,-5.89318,-7.76978
0.49185,1.00482,-5.86011,-7.94845
0.50188,0.98641,-5.84245,-7.9697
0.51192,0.97743,-5.86998,-7.91448
0.52196,1.00003,-5.94899,-7.96521
0.532,1.03699,-5.91458,-8.05679
0.54203,1.08981,-5.82973,-8.01279
0.55207,1.13784,-5.74743,-7.86989
0.56211,1.16403,-5.71062,-7.72444
0.57215,1.15505,-5.71855,-7.58498
0.58218,1.06677,-5.82838,-7.49759
0.59222,0.93149,-6.02576,-7.62239
0.60226,0.82151,-6.16417,-7.96162
0.6123,0.86924,-6.11943,-8.16572
0.62233,0.94496,-5.95049,-8.0502
0.63237,1.05225,-5.8215,-7.92017
0.64241,1.21162,-5.71406,-7.73866
0.65245,1.35317,-5.65914,-7.598
0.66249,1.35482,-5.65076,-7.45869
0.67252,1.31516,-5.69745,-7.36711
0.68256,1.25247,-5.76658,-7.47874
0.6926,1.20847,-5.81492,-7.60743
0.70264,1.1962,-5.79621,-7.6197
0.71267,1.18393,-5.82704,-7.58438
0.72271,1.16089,-5.88076,-7.45644
0.73275,1.11854,-5.89886,-7.33823
0.74279,1.0943,-5.88585,-7.29498
0.75282,1.05554,-5.84649,-7.27718
0.76286,1.0536,-5.83841,-7.29962
0.7729,1.0331,-5.90979,-7.37235
0.78294,0.98686,-5.93642,-7.42786
0.79297,0.91189,-5.97338,-7.48637
0.80301,0.87897,-6.01109,-7.48472
0.81305,0.91952,-6.05389,-7.44716
0.82309,0.90471,-6.09145,-7.50403
0.83312,0.88989,-6.08726,-7.5757
0.84316,0.88885,-6.05269,-7.59261
0.8532,0.88256,-6.07155,-7.57136
0.86324,0.87658,-6.12542,-7.54712
0.87327,0.84216,-6.1721,-7.52842
0.88331,0.79203,-6.2158,-7.60458
0.89335,0.72589,-6.22762,-7.77667
0.90339,0.70255,-6.18153,-7.93738
0.91343,0.72918,-6.14666,-8.00232
0.92346,0.81612,-6.08681,-8.03704
0.9335,0.86401,-6.02037,-8.08926
0.94354,0.86745,-5.97024,-8.09465
0.95358,0.83722,-5.95124,-8.14058
0.96361,0.79622,-5.97458,-8.1364
0.97365,0.79607,-6.0066,-8.06801
0.98369,0.83303,-6.01319,-8.04901
0.99373,0.91818,-6.00106,-7.90281
1.00376,1.06647,-5.98805,-7.64124
1.0138,1.19456,-5.96441,-7.4524
1.02384,1.31487,-5.94675,-7.34406
1.03388,1.34255,-5.91203,-7.34032
1.04391,1.28584,-5.93388,-7.46303
1.05395,1.18139,-5.97922,-7.57959
1.06399,1.04672,-6.03384,-7.68419
1.07403,0.93194,-6.1121,-7.721
1.08406,0.83573,-6.18303,-7.73103
1.0941,0.7826,-6.21639,-7.71157
1.10414,0.77213,-6.20038,-7.76305
1.11418,0.77991,-6.14517,-7.77637
1.12422,0.79517,-6.11285,-7.83413
1.13425,0.79996,-6.07394,-7.91074
1.14429,0.78605,-6.02261,-7.98616
1.15433,0.7217,-5.99807,-8.0107
1.16437,0.63461,-6.01917,-8.02671
1.1744,0.50907,-6.06451,-7.95159
1.18444,0.39325,-6.11778,-7.77218
1.19448,0.3735,-6.1917,-7.59366
1.20452,0.43305,-6.20846,-7.47754
1.21455,0.52478,-6.18108,-7.37444
1.22459,0.60289,-6.13035,-7.29738
1.23463,0.66454,-6.10536,-7.22061
1.24467,0.7232,-6.0916,-7.16195
1.2547,0.79877,-6.05748,-7.1642
1.26474,0.89274,-6.04132,-7.20236
1.27478,0.99374,-6.00451,-7.27269
1.28482,1.0539,-5.96216,-7.34272
1.29485,1.11061,-5.95588,-7.41918
1.30489,1.14787,-5.95378,-7.43938
1.31493,1.17047,-5.97488,-7.40826
1.32497,1.20129,-6.01259,-7.36082
1.33501,1.25052,-6.069,-7.27463
1.34504,1.30289,-6.10686,-7.17617
1.35508,1.35527,-6.17734,-7.15402
1.36512,1.33776,-6.21026,-7.23213
1.37516,1.26534,-6.18078,-7.40227
1.38519,1.16283,-6.17749,-7.58977
1.39523,1.01424,-6.1944,-7.81886
1.40527,0.88585,-6.1926,-8.06891
1.41531,0.79308,-6.16462,-8.21495
1.42534,0.75193,-6.13843,-8.19251
1.43538,0.74295,-6.11973,-8.15809
1.44542,0.69941,-6.1109,-8.06457
1.45546,0.65526,-6.1112,-7.91583
1.46549,0.60214,-6.10013,-7.83024
1.47553,0.53106,-6.09145,-7.81004
1.48557,0.48064,-6.1094,-7.75437
1.49561,0.42452,-6.1531,-7.65426
1.50565,0.40776,-6.22373,-7.494
1.51568,0.4534,-6.28897,-7.25877
1.52572,0.54902,-6.33012,-7.01531
1.53576,0.68339,-6.3189,-6.83081
1.54579,0.83887,-6.2972,-6.82318
1.55583,0.93045,-6.29076,-6.93316
1.56587,0.97564,-6.27445,-7.12006
1.57591,0.98656,-6.277,-7.20505
1.58595,1.00751,-6.31306,-7.2468
1.59598,1.05135,-6.35616,-7.25189
1.60602,1.14263,-6.36618,-7.27628
1.61606,1.22179,-6.33147,-7.3077
1.6261,1.27506,-6.29974,-7.42412
1.63613,1.28135,-6.30139,-7.50373
1.64617,1.31442,-6.30693,-7.49176
1.65621,1.33791,-6.33476,-7.50986
1.66625,1.29332,-6.32698,-7.4946
1.67628,1.22823,-6.31979,-7.52513
1.68632,1.176,-6.33775,-7.61536
1.69636,1.15311,-6.32473,-7.67521
1.7064,1.15251,-6.29675,-7.6818
1.71643,1.17436,-6.28717,-7.61745
1.72647,1.20398,-6.28134,-7.53171
1.73651,1.24558,-6.24273,-7.39913
1.74655,1.30274,-6.22941,-7.30142
1.75659,1.36335,-6.20383,-7.23737
1.76662,1.44715,-6.18198,-7.22435
1.77666,1.52466,-6.13185,-7.26087
1.7867,1.54995,-6.07379,-7.32506
1.79674,1.59274,-6.01708,-7.37743
1.80677,1.60262,-6.01364,-7.36217
1.81681,1.62222,-6.01438,-7.31473
1.82685,1.64362,-6.01648,-7.26326
1.83689,1.64571,-6.01902,-7.22016
1.84692,1.64691,-6.02336,-7.24411
1.85696,1.62521,-6.04282,-7.25952
1.867,1.62028,-6.09354,-7.21403
1.87704,1.59738,-6.13529,-7.17273
1.88707,1.56162,-6.16926,-7.18605
1.89711,1.54216,-6.18093,-7.23184
1.90715,1.46555,-6.18976,-7.26655
1.91719,1.37652,-6.22822,-7.29708
1.92722,1.30334,-6.2568,-7.34691
1.93726,1.26384,-6.277,-7.32326
1.9473,1.2595,-6.28358,-7.33972
1.95734,1.27042,-6.27146,-7.38477
1.96738,1.30409,-6.2351,-7.39958
1.97741,1.31771,-6.2128,-7.43983
1.98745,1.3005,-6.20068,-7.52632
1.99749,1.2809,-6.23645,-7.516
2.00753,1.26025,-6.26069,-7.47275
2.01756,1.26414,-6.28957,-7.4334
2.0276,1.26863,-6.29181,-7.39554
2.03764,1.2996,-6.30019,-7.38881
2.04768,1.32489,-6.32279,-7.39704
2.05771,1.35018,-6.34104,-7.39479
2.06775,1.38011,-6.35301,-7.38462
2.07779,1.37846,-6.35646,-7.34451
2.08783,1.39148,-6.35975,-7.32267
2.09786,1.40914,-6.37711,-7.30291
2.1079,1.38983,-6.38429,-7.31833
2.11794,1.39986,-6.3807,-7.35978
2.12798,1.37023,-6.39551,-7.3912
2.13801,1.35003,-6.40913,-7.42427
2.14805,1.34704,-6.39701,-7.45569
2.15809,1.33611,-6.41601,-7.43385
2.16813,1.35542,-6.42783,-7.40856
2.17817,1.39761,-6.42589,-7.37953
2.1882,1.46465,-6.41885,-7.34631
2.19824,1.48949,-6.39282,-7.32521
2.20828,1.52945,-6.34957,-7.33613
2.21832,1.52256,-6.29181,-7.36412
2.22835,1.56596,-6.24423,-7.39659
2.23839,1.62566,-6.20263,-7.44133
2.24843,1.67459,-6.17689,-7.48517
2.25847,1.71485,-6.12736,-7.47141
2.2685,1.71844,-6.06855,-7.43848
2.27854,1.67774,-6.09444,-7.48697
2.28858,1.62387,-6.11479,-7.51705
2.29862,1.61354,-6.10761,-7.47021
2.30865,1.59618,-6.09294,-7.42666
2.31869,1.62162,-6.07125,-7.38851
2.32873,1.64152,-6.05329,-7.33808
2.33877,1.64063,-6.006,-7.2483
2.3488,1.6532,-5.99284,-7.15612
2.35884,1.65679,-5.99089,-7.07352
2.36888,1.66382,-5.9867,-7.02219
2.37892,1.64048,-5.99164,-7.02159
2.38896,1.64137,-5.98939,-7.03461
2.39899,1.63539,-6.01319,-7.07457
2.40903,1.61564,-6.03773,-7.07621
2.41907,1.60382,-6.05733,-7.03042
2.42911,1.60681,-6.08097,-7.03342
2.43914,1.59499,-6.08471,-7.0593
2.44918,1.59394,-6.09833,-7.08818
2.45922,1.59798,-6.10836,-7.0804
2.46926,1.58765,-6.12676,-7.13143
2.47929,1.59618,-6.13634,-7.16704
2.48933,1.63853,-6.14113,-7.1865
2.49937,1.63943,-6.11075,-7.21328
2.50941,1.65649,-6.09504,-7.26371
2.51944,1.65664,-6.07828,-7.33673
2.52948,1.67848,-6.08322,-7.35873
2.53952,1.67714,-6.07978,-7.3098
2.54956,1.67459,-6.09474,-7.28256
2.55959,1.68657,-6.08142,-7.37758
2.56963,1.69599,-6.04222,-7.52946
2.57967,1.69674,-6.05194,-7.58333
2.58971,1.68791,-6.05613,-7.5959
2.59975,1.75016,-6.0705,-7.56523
2.60978,1.80448,-6.0696,-7.5353
2.61982,1.83531,-6.05688,-7.57196
2.62986,1.88035,-6.04296,-7.63825
2.6399,1.89516,-5.98775,-7.72325
2.64993,1.89112,-5.95154,-7.8467
2.65997,1.89696,-5.92011,-7.95174
2.67001,1.93227,-5.87672,-8.01833
2.68005,1.93736,-5.83512,-8.05604
2.69008,1.95636,-5.82973,-8.01908
2.70012,1.93841,-5.82868,-8.02551
2.71016,1.90369,-5.85008,-7.98541
2.7202,1.86912,-5.8854,-7.94516
2.73023,1.79924,-5.92535,-7.93962
2.74027,1.72383,-5.96141,-7.96207
2.75031,1.70722,-5.98296,-7.98421
2.76035,1.68657,-5.97009,-8.00471
2.77038,1.65963,-5.95902,-7.97075
2.78042,1.63928,-5.95513,-7.92122
2.79046,1.62641,-5.98057,-7.86645
2.8005,1.59783,-5.99418,-7.85912
2.81053,1.57209,-6.0099,-7.93034
2.82057,1.57299,-6.03055,-7.9483
2.83061,1.58002,-6.03099,-7.92062
2.84065,1.59529,-6.02007,-7.88366
2.85069,1.6122,-6.00481,-7.79881
2.86072,1.6101,-5.98027,-7.77652
2.87076,1.58706,-5.95453,-7.78789
2.8808,1.57194,-5.95378,-7.84206
2.89084,1.55309,-5.93478,-7.89668
2.90087,1.5682,-5.90829,-7.91104
2.91091,1.61728,-5.88076,-7.84625
2.92095,1.68612,-5.83706,-7.76066
2.93099,1.73131,-5.77586,-7.73028
2.94102,1.76842,-5.72169,-7.72609
2.95106,1.79834,-5.68294,-7.76395
2.9611,1.78712,-5.68937,-7.79507
2.97114,1.73056,-5.69102,-7.86824
2.98117,1.69165,-5.70897,-7.9498
2.99121,1.67489,-5.70568,-7.94157
3.00125,1.66801,-5.69206,-7.83413
3.01129,1.68013,-5.69551,-7.79777
3.02132,1.65888,-5.68084,-7.7819
3.03136,1.61654,-5.6554,-7.77592
3.0414,1.54905,-5.64298,-7.83069
3.05144,1.47423,-5.64837,-7.90281
3.06148,1.42096,-5.6795,-7.92271
3.07151,1.36185,-5.71631,-7.91029
3.08155,1.2818,-5.72259,-7.8856
3.09159,1.2577,-5.72139,-7.83951
3.10163,1.23152,-5.72723,-7.77337
3.11166,1.18274,-5.72573,-7.69182
3.1217,1.16508,-5.74653,-7.63227
3.13174,1.157,-5.77377,-7.59471
3.14178,1.17406,-5.81671,-7.52572
3.15181,1.2185,-5.8417,-7.4738
3.16185,1.28988,-5.82494,-7.41694
3.17189,1.35916,-5.7992,-7.38237
3.18193,1.44565,-5.78439,-7.36127
3.19196,1.51463,-5.79756,-7.32611
3.202,1.55294,-5.80205,-7.35858
3.21204,1.62596,-5.81088,-7.36756
3.22208,1.6737,-5.81297,-7.39763
3.23211,1.71051,-5.83257,-7.43759
3.24215,1.77216,-5.87088,-7.42696
3.25219,1.82872,-5.87088,-7.30067
3.26223,1.88858,-5.87537,-7.16689
3.27227,1.92374,-5.89288,-7.16809
3.2823,1.93571,-5.93433,-7.21148
3.29234,1.91057,-5.96231,-7.26386
3.30238,1.88124,-5.98356,-7.33673
3.31242,1.86553,-5.99703,-7.3309
3.32245,1.86119,-5.9873,-7.4316
3.33249,1.84473,-5.97159,-7.52932
3.34253,1.81974,-5.97473,-7.58887
3.35257,1.74088,-5.97488,-7.73058
3.3626,1.65559,-5.98326,-7.86211
3.37264,1.54875,-5.99104,-7.91792
3.38268,1.46465,-6.02785,-7.91688
3.39272,1.38953,-6.07723,-7.89877
3.40275,1.35796,-6.12556,-7.82709
3.41279,1.32998,-6.15325,-7.73522
3.42283,1.30634,-6.14128,-7.69586
3.43287,1.29691,-6.11988,-7.71098
3.4429,1.26938,-6.01947,-7.67626
3.45294,1.2785,-5.95887,-7.62853
3.46298,1.27237,-5.99583,-7.60428
3.47302,1.23765,-5.98251,-7.65082
3.48306,1.22194,-5.92011,-7.78654
3.49309,1.28673,-5.75835,-7.75347
3.50313,1.28673,-5.75835,-7.75347
3.51317,1.40854,-5.73815,-7.60518
3.52321,1.53259,-5.73651,-7.40691
3.53324,1.64078,-5.71526,-7.23857
3.54328,1.7355,-5.7169,-7.15058
3.55332,1.7735,-5.7175,-7.1425
3.56336,1.79071,-5.72199,-7.2046
3.57339,1.80478,-5.74549,-7.28466
3.58343,1.82019,-5.79083,-7.35394
3.59347,1.83441,-5.8215,-7.43011
3.60351,1.85266,-5.82599,-7.53979
3.61354,1.84294,-5.823,-7.61611
3.62358,1.84473,-5.79935,-7.64843
3.63362,1.83231,-5.81462,-7.70035
3.64366,1.76228,-5.83153,-7.78879
3.65369,1.62102,-5.87477,-7.89937
3.66373,1.50685,-5.96605,-7.91029
3.67377,1.40166,-6.05808,-7.97419
3.68381,1.33492,-6.0687,-8.02776
3.69385,1.28165,-6.03818,-8.04257
3.70388,1.25501,-5.99658,-8.02776
3.71392,1.20458,-5.98416,-8.03853
3.72396,1.14802,-5.94151,-7.97389
3.734,1.08981,-5.9466,-8.00756
3.74403,1.04193,-5.94794,-8.115
3.75407,1.00272,-5.92221,-8.10317
3.76411,0.98312,-5.87313,-8.03958
3.77415,1.00197,-5.81582,-7.99199
3.78418,0.99883,-5.77287,-7.94007
3.79422,1.00886,-5.74489,-7.88874
3.80426,0.98581,-5.69551,-7.87902
3.8143,0.95259,-5.65615,-7.92945
3.82433,0.94272,-5.63221,-7.89997
3.83437,0.92835,-5.62338,-7.82305
3.84441,0.85398,-5.66288,-7.78729
3.85445,0.83423,-5.70418,-7.71726
3.86448,0.81837,-5.75521,-7.64528
3.87452,0.77737,-5.78873,-7.62867
3.88456,0.7434,-5.81342,-7.69466
3.8946,0.67606,-5.78619,-7.84834
3.90463,0.621,-5.72154,-8.04586
3.91467,0.62653,-5.64373,-8.09135
3.92471,0.62593,-5.56053,-8.10258
3.93475,0.62788,-5.49439,-8.18159
3.94479,0.62339,-5.43589,-8.29995
3.95482,0.59092,-5.39728,-8.27541
3.96486,0.58508,-5.3687,-8.05275
3.9749,0.60005,-5.39444,-7.85134
3.98494,0.62219,-5.41344,-7.60668
3.99497,0.7015,-5.4498,-7.35618
4.00501,0.79323,-5.48811,-7.28585
4.01505,0.87284,-5.51564,-7.36427
4.02509,0.94466,-5.57475,-7.43774
4.03512,0.95319,-5.58253,-7.60728
4.04516,0.87358,-5.5954,-7.77756
4.0552,0.85653,-5.6343,-7.88695
4.06524,0.80101,-5.70119,-8.08312
4.07527,0.71227,-5.7401,-8.18952
4.08531,0.69282,-5.80699,-8.052
4.09535,0.70569,-5.76838,-7.80809
4.10539,0.66903,-5.76374,-7.69242
4.11542,0.62743,-5.85921,-7.71382
4.12546,0.52238,-5.96874,-7.77307
4.1355,0.47241,-5.96066,-7.97913
4.14554,0.48034,-5.82838,-8.25895
4.15558,0.48662,-5.73067,-8.44031
4.16561,0.53121,-5.74115,-8.50121
4.17565,0.55201,-5.75955,-8.56556
4.18569,0.57491,-5.74908,-8.63244
4.19573,0.60603,-5.75282,-8.69963
4.20576,0.60124,-5.74953,-8.68751
4.2158,0.56773,-5.75327,-8.50465
4.22584,0.54064,-5.80788,-8.10482
4.23588,0.58104,-5.8631,-7.83233
4.24591,0.66289,-5.91338,-7.70215
4.25595,0.71362,-5.92116,-7.66608
4.26599,0.71901,-5.92984,-7.6381
4.27603,0.66753,-5.97757,-7.55745
4.28606,0.5785,-6.03758,-7.56493
4.2961,0.50877,-6.05987,-7.61431
4.30614,0.43485,-6.04476,-7.6372
4.31618,0.37454,-5.99673,-7.67521
4.32621,0.35868,-6.01947,-7.73058
4.33625,0.25034,-6.11883,-7.76036
4.34629,0.06315,-6.18437,-7.84296
4.35633,-0.09562,-6.22358,-8.04422
4.36636,-0.15832,-6.18856,-8.21421
4.3764,-0.13976,-6.10342,-8.21286
4.38644,-0.12599,-6.05913,-8.07205
4.39648,-0.07691,-6.04611,-7.88845
4.40652,0.03142,-6.03234,-7.73626
4.41655,0.12166,-6.00825,-7.64154
4.42659,0.18884,-5.95767,-7.55056
4.43663,0.2062,-5.95124,-7.55475
4.44667,0.25079,-5.9463,-7.56104
4.4567,0.33848,-5.89886,-7.58348
4.46674,0.40821,-5.85307,-7.62284
4.47678,0.46642,-5.83018,-7.59755
4.48682,0.48228,-5.83302,-7.5558
4.49685,0.44128,-5.87477,-7.46557
4.50689,0.38562,-5.93732,-7.41649
4.51693,0.33564,-5.98535,-7.52183
4.52697,0.27892,-5.97578,-7.76499
4.537,0.26246,-5.93717,-7.78594
4.54704,0.26995,-5.92625,-7.78145
4.55708,0.2701,-5.92206,-7.79253
4.56712,0.24496,-5.95348,-7.74105
4.57715,0.1658,-6.01932,-7.69646
4.58719,0.06928,-6.09414,-7.67656
4.59723,-0.02274,-6.19365,-7.84311
4.60727,-0.07183,-6.24258,-8.11619
4.61731,-0.11507,-6.19649,-8.16572
4.62734,-0.02649,-6.11195,-8.02058
4.63738,0.10325,-6.03533,-7.83712
4.64742,0.21697,-6.0063,-7.56747
4.65746,0.28371,-6.01723,-7.31818
4.66749,0.27788,-6.04835,-7.21687
4.67753,0.24077,-6.16462,-7.15118
4.68757,0.18226,-6.33206,-7.25548
4.69761,0.16565,-6.28089,-7.23258
4.70764,0.21488,-6.26548,-7.20924
4.71768,0.18091,-6.29316,-7.32042
4.72772,0.15248,-6.30872,-7.50238
4.73776,0.17582,-6.33296,-7.70619
4.74779,0.26426,-6.31426,-7.87243
4.75783,0.36931,-6.26922,-7.85912
4.76787,0.50248,-6.21654,-7.59216
4.77791,0.62833,-6.10896,-7.3725
4.78794,0.61935,-5.99344,-7.29259
4.79798,0.5559,-5.97159,-7.30187
4.80802,0.43081,-6.05568,-7.34885
4.81806,0.32277,-6.19993,-7.39195
4.82809,0.34731,-6.25889,-7.38925
4.83813,0.44353,-6.18871,-7.40542
4.84817,0.58628,-6.03952,-7.44058
4.85821,0.7437,-6.02187,-7.52827
4.86825,0.78844,-5.99493,-7.71666
4.87828,0.7449,-5.9653,-7.8889
4.88832,0.62638,-5.98595,-7.91224
4.89836,0.55141,-6.06616,-7.84326
4.9084,0.52583,-6.18901,-7.67791
4.91843,0.50907,-6.28942,-7.412
4.92847,0.44607,-6.34284,-7.23094
4.93851,0.40956,-6.34224,-7.14924
4.94855,0.45729,-6.27475,-7.10285
4.95858,0.55994,-6.20248,-7.17258
4.96862,0.62144,-6.13559,-7.33748
4.97866,0.66155,-6.06227,-7.48861
4.9887,0.67696,-5.98745,-7.52557
4.99873,0.65646,-5.9683,-7.59141
5.00877,0.62115,-6.01124,-7.65845
5.01881,0.50982,-6.10417,-7.68599
5.02885,0.38607,-6.2125,-7.62688
5.03888,0.27653,-6.32473,-7.49355
5.04892,0.24211,-6.38982,-7.42607
5.05896,0.2671,-6.39491,-7.52812
5.069,0.30541,-6.34329,-7.71786
5.07903,0.33818,-6.26413,-7.81991
5.08907,0.39579,-6.1938,-7.82395
5.09911,0.45774,-6.13769,-7.8048
5.10915,0.50832,-6.10282,-7.74674
5.11919,0.52418,-6.09878,-7.6402
5.12922,0.48557,-6.14801,-7.62957
5.13926,0.4763,-6.23256,-7.56702
5.1493,0.49336,-6.26293,-7.5356
5.15934,0.45206,-6.25515,-7.56523
5.16937,0.353,-6.28747,-7.51809
5.17941,0.27354,-6.3364,-7.42906
5.18945,0.309,-6.33012,-7.50283
5.19949,0.39594,-6.28927,-7.66264
5.20952,0.45744,-6.23809,-7.82111
5.21956,0.45445,-6.22403,-7.84296
5.2296,0.42318,-6.2556,-7.70469
5.23964,0.37245,-6.33446,-7.46168
5.24967,0.3313,-6.40973,-7.26311
5.25971,0.29733,-6.47302,-7.20146
5.26975,0.27937,-6.45192,-7.34377
5.27979,0.26935,-6.41541,-7.42846
5.28982,0.29568,-6.45567,-7.4331
5.29986,0.3931,-6.48769,-7.36097
5.3099,0.43799,-6.4211,-7.43938
5.31994,0.42946,-6.28448,-7.58229
5.32998,0.43126,-6.24378,-7.64813
5.34001,0.45206,-6.22642,-7.55445
5.35005,0.51475,-6.28059,-7.41215
5.36009,0.51026,-6.36588,-7.34646
5.37013,0.36407,-6.43876,-7.33254
5.38016,0.05791,-6.40479,-7.13637
5.3902,-0.0606,-6.46764,-7.03716
5.40024,0.32801,-6.73579,-7.02623
5.41028,0.68489,-6.77065,-6.73235
5.42031,0.79847,-6.59498,-6.58376
5.43035,0.76839,-6.39057,-6.7937
5.44039,0.62159,-6.24767,-7.11407
5.45043,0.52867,-6.15744,-7.34391
5.46046,0.41405,-6.12945,-7.30157
5.4705,0.39594,-6.13963,-7.06858
5.48054,0.4763,-6.09175,-6.92044
5.49058,0.62324,-6.08756,-6.83575
5.50061,0.75492,-6.17719,-6.91954
5.51065,0.75821,-6.1929,-7.0403
5.52069,0.68265,-6.0895,-7.13981
5.53073,0.66155,-5.97787,-7.47664
5.54076,0.57566,-6.12975,-7.80151
5.5508,0.47031,-6.34568,-8.1343
5.56084,0.38202,-6.2574,-8.61733
5.57088,0.39774,-6.08771,-8.82218
5.58092,0.44712,-5.90231,-8.87276
5.59095,0.51026,-5.85337,-8.76727
5.60099,0.58628,-5.83542,-8.27616
5.61103,0.44727,-5.85906,-7.90685
5.62107,0.0003,-6.05224,-7.80151
5.6311,-0.50188,-6.36588,-7.88276
5.64114,-0.7021,-6.47108,-8.99561
5.65118,-0.63686,-6.17016,-9.48104
5.66122,-0.48303,-6.09429,-9.15034
5.67125,-0.29703,-6.25096,-8.49014
5.68129,-0.11223,-6.12766,-7.8259
5.69133,-0.0624,-5.96904,-6.86373
5.70137,-0.15727,-5.96919,-6.14951
5.7114,-0.0817,-5.97488,-6.5643
5.72144,0.22715,-5.99942,-7.02698
5.73148,0.65392,-6.12422,-7.61715
5.74152,0.77288,-6.0069,-7.91388
5.75155,0.71976,-5.81671,-8.49358
5.76159,0.54678,-5.89258,-9.01327
5.77163,0.20351,-6.08606,-8.88623
5.78167,0.05926,-6.16686,-8.36953
5.7917,0.1857,-5.97563,-7.52438
5.80174,0.48662,-5.78095,-7.06873
5.81178,0.77886,-5.70538,-7.13637
5.82182,0.89453,-5.60363,-7.35828
5.83186,0.91653,-5.49469,-7.62778
5.84189,0.86146,-5.72334,-7.63152
5.85193,0.71736,-5.98535,-7.535
5.86197,0.69043,-6.0069,-7.58513
5.87201,0.81986,-5.74668,-7.64543
5.88204,0.92147,-5.42421,-7.71038
5.89208,0.88556,-5.41883,-7.74509
5.90212,0.7841,-5.60872,-7.63675
5.91216,0.59062,-5.7802,-7.34736
5.92219,0.27578,-5.97832,-7.28256
5.93223,0.17971,-6.12676,-7.49235
5.94227,0.35539,-5.85667,-7.72848
5.95231,0.77452,-5.28715,-7.97209
5.96234,1.19171,-4.90377,-8.14552
5.97238,1.26444,-4.96692,-7.93438
5.98242,1.07829,-5.28011,-7.59426
5.99246,0.7244,-5.63041,-7.35289
6.00249,0.52882,-5.89168,-7.46033
6.01253,0.6213,-5.77392,-7.83054
6.02257,0.82989,-5.45668,-7.91703
6.03261,1.07904,-5.27996,-7.91882
6.04264,1.18094,-5.15741,-7.94965
6.05268,1.11271,-4.99116,-7.75647
6.06272,1.20458,-4.71807,-7.82305
6.07276,1.27641,-4.80322,-8.55358
6.0828,1.14159,-5.26545,-8.6938
6.09283,0.94676,-5.46506,-8.43253
6.10287,0.82929,-5.38621,-8.40664
6.11291,0.6807,-5.42137,-8.21076
6.12295,0.66454,-5.66633,-7.96446
6.13298,0.72395,-5.79098,-7.85777
6.14302,0.74011,-5.7202,-8.09031
6.15306,0.71272,-5.57879,-8.24533
6.1631,0.62953,-5.56248,-8.18772
6.17313,0.5574,-5.67635,-8.01444
6.18317,0.54438,-5.65032,-7.95294
6.19321,0.65451,-5.49813,-7.87184
6.20325,0.68175,-5.40356,-7.89503
6.21328,0.64209,-5.45055,-8.18862
6.22332,0.45041,-5.6777,-8.35756
6.23336,0.24196,-5.81282,-8.29142
6.2434,0.21069,-5.79816,-8.16333
6.25343,0.36542,-5.62922,-8.11111
6.26347,0.56982,-5.42362,-8.13789
6.27351,0.66319,-5.29792,-8.19834
6.28355,0.62174,-5.3684,-8.3194
6.29358,0.56578,-5.45115,-8.28229
6.30362,0.55905,-5.46551,-8.07834
6.31366,0.57805,-5.50532,-7.92062
6.3237,0.62938,-5.55784,-7.96207
6.33374,0.68325,-5.52387,-8.11649
6.34377,0.67023,-5.46896,-8.18039
6.35381,0.62653,-5.451,-8.15959
6.36385,0.60289,-5.51594,-7.97209
6.37389,0.59586,-5.54976,-7.91837
6.38392,0.71497,-5.49828,-7.99484
6.39396,0.83513,-5.45339,-8.07684
6.404,0.94361,-5.37124,-8.18862
6.41404,0.9689,-5.25737,-8.22723
6.42407,0.87314,-5.26171,-8.19954
6.43411,0.7633,-5.39099,-8.11649
6.44415,0.69058,-5.48048,-8.12517
6.45419,0.7027,-5.46327,-8.1141
6.46422,0.77452,-5.46312,-8.01444
6.47426,0.77378,-5.44786,-7.9905
6.4843,0.76839,-5.39833,-8.04108
6.49434,0.69701,-5.38276,-8.08941
6.50437,0.60678,-5.42167,-8.1979
6.51441,0.59182,-5.44546,-8.30384
6.52445,0.60214,-5.43633,-8.26628
6.53449,0.60917,-5.50741,-8.21944
6.54452,0.57132,-5.56338,-8.16258
6.55456,0.51685,-5.5758,-8.05873
6.5646,0.53076,-5.59555,-7.94606
6.57464,0.59406,-5.61814,-7.82709
6.58468,0.65227,-5.58343,-7.85493
6.59471,0.76225,-5.55694,-7.9492
6.60475,0.8679,-5.45459,-8.04257
6.61479,0.97175,-5.3069,-8.07863
6.62483,0.98402,-5.32306,-7.99648
6.63486,0.94391,-5.40925,-7.92241
6.6449,0.86012,-5.48197,-8.02297
6.65494,0.77871,-5.54063,-8.12413
6.66498,0.75073,-5.54737,-8.08582
6.67501,0.85009,-5.53854,-7.99888
6.68505,0.90396,-5.47374,-7.93079
6.69509,0.97115,-5.40072,-7.88216
6.70513,1.01125,-5.39833,-7.885
6.71516,0.97369,-5.40641,-7.96476
6.7252,0.88032,-5.4097,-8.06068
6.73524,0.86476,-5.41479,-8.10602
6.74528,0.82884,-5.47404,-8.12727
6.75531,0.73981,-5.54078,-8.12951
6.76535,0.67262,-5.57101,-8.18443
6.77539,0.65062,-5.55156,-8.14926
6.78543,0.71527,-5.54617,-8.10901
6.79546,0.8049,-5.52133,-8.06292
6.8055,0.85772,-5.43798,-7.95952
6.81554,0.83887,-5.43633,-7.88994
6.82558,0.77303,-5.5131,-7.89697
6.83561,0.73307,-5.533,-7.99663
6.84565,0.74714,-5.51235,-8.09345
6.85569,0.785,-5.4905,-8.10991
6.86573,0.82121,-5.51519,-8.09629
6.87577,0.77542,-5.52208,-8.02476
6.8858,0.78201,-5.54811,-7.95354
6.89584,0.80759,-5.56128,-7.90865
6.90588,0.88391,-5.51893,-7.88396
6.91592,0.89558,-5.48033,-8.00726
6.92595,0.91309,-5.42496,-8.16946
6.93599,0.91967,-5.39294,-8.19999
6.94603,0.89887,-5.42646,-8.15555
6.95607,0.81807,-5.48362,-8.09614
6.9661,0.77348,-5.47314,-8.02626
6.97614,0.82465,-5.45265,-8.04347
6.98618,0.92641,-5.44052,-8.04946
6.99622,1.01858,-5.38845,-8.06996
7.00625,1.04312,-5.35852,-8.0324
7.01629,1.01754,-5.38561,-7.96745
7.02633,0.93957,-5.42481,-7.93094
7.03637,0.8869,-5.47,-7.97209
7.0464,0.83468,-5.48317,-8.0502
7.05644,0.86386,-5.43214,-8.10258
7.06648,0.94302,-5.39309,-8.14941
7.07652,0.9511,-5.39818,-8.15241
7.08655,0.89274,-5.43289,-8.11006
7.09659,0.80789,-5.49903,-8.05784
7.10663,0.76435,-5.50951,-7.95399
7.11667,0.8037,-5.46102,-7.90506
7.12671,0.80385,-5.40775,-8.03449
7.13674,0.76869,-5.4519,-8.24339
7.14678,0.7452,-5.45549,-8.3393
7.15682,0.76345,-5.42706,-8.29785
7.16686,0.77168,-5.4278,-8.20523
7.17689,0.72679,-5.44576,-8.11754
7.18693,0.70943,-5.47225,-8.07579
7.19697,0.71452,-5.4694,-8.08567
7.20701,0.71302,-5.44696,-8.09016
7.21704,0.71168,-5.46417,-8.08806
7.22708,0.7244,-5.47524,-8.02462
7.23712,0.73906,-5.4314,-7.95728
7.24716,0.77737,-5.44711,-7.92286
7.25719,0.75103,-5.48197,-7.95474
7.26723,0.66978,-5.50352,-8.0083
7.27727,0.65377,-5.48467,-8.00741
7.28731,0.70644,-5.43229,-7.99648
7.29734,0.80011,-5.41509,-8.00337
7.30738,0.86595,-5.39788,-8.00337
7.31742,0.91459,-5.39698,-7.97434
7.32746,0.91384,-5.3886,-7.96895
7.33749,0.83079,-5.41509,-8.02536
7.34753,0.79682,-5.37693,-8.1961
7.35757,0.79323,-5.36316,-8.30758
7.36761,0.82331,-5.41419,-8.23471
7.37765,0.83797,-5.41314,-8.09914
7.38768,0.83169,-5.42825,-8.05619
7.39772,0.8887,-5.42766,-8.00681
7.40776,0.90441,-5.42511,-7.97928
7.4178,0.848,-5.3898,-8.05245
7.42783,0.83378,-5.3693,-8.19221
7.43787,0.86072,-5.38157,-8.15914
7.44791,0.86101,-5.38591,-8.03718
7.45795,0.80969,-5.41299,-7.90371
7.46798,0.82495,-5.3898,-7.78819
7.47802,0.86401,-5.39114,-7.80974
7.48868,0.84426,-5.40745,-7.88904
7.49872,0.81627,-5.47359,-7.94591
7.50876,0.785,-5.47434,-8.02043
7.5188,0.65541,-5.46297,-8.24339
7.52884,0.60903,-5.44741,-8.47787
7.53887,0.75283,-5.4076,-8.52949
7.54891,0.8878,-5.36885,-8.46171
7.55895,0.95903,-5.42212,-8.44839
7.56899,0.9297,-5.57819,-8.44854
7.57902,0.90845,-5.62832,-8.51707
7.58906,0.89004,-5.68623,-8.66671
7.5991,0.95574,-5.74189,-8.75844
7.60914,1.18184,-5.76314,-8.76846
7.61917,1.51837,-5.82824,-8.77729
7.62921,1.77336,-6.06646,-8.70681
7.63925,1.97821,-6.29136,-8.63304
7.64929,2.2709,-6.26323,-8.7526
7.65932,2.43535,-6.17824,-9.14884
7.66936,2.27868,-6.28732,-9.74261
7.6794,2.06769,-6.36319,-10.32066
7.68944,1.89411,-6.30363,-10.52341
7.69947,1.72068,-6.2779,-10.37707
7.70951,1.55084,-6.26563,-10.14723
7.71955,1.30948,-6.25216,-9.80515
7.72959,0.96082,-6.27041,-9.44632
7.73962,0.53091,-6.31546,-9.12535
7.74966,0.1453,-6.38863,-8.76248
7.7597,-0.05402,-6.34045,-8.41831
7.76974,0.05806,-6.03354,-8.0713
7.77978,0.30661,-5.7178,-7.58154
7.78981,0.39444,-5.53614,-7.13801
7.79985,0.24989,-5.52342,-6.96728
7.80989,0.09068,-5.54632,-6.78981
7.81993,0.05417,-5.49125,-6.5851
7.82996,0.18585,-5.48512,-6.44579
7.84,0.3503,-5.51055,-6.36364
7.85004,0.47106,-5.64313,-6.49786
7.86008,0.51056,-5.81701,-6.77155
7.87011,0.46148,-5.91248,-7.15567
7.88015,0.55994,-5.93867,-7.44447
7.89019,0.77288,-5.86205,-7.57466
7.90023,0.99404,-5.77616,-7.61775
7.91026,1.05719,-5.84051,-7.79642
7.9203,1.0135,-5.93597,-7.97748
7.93034,1.07889,-6.04745,-8.05993
7.94038,1.20234,-6.21565,-7.9088
7.95042,1.34629,-6.33446,-7.84445
7.96045,1.50505,-6.43801,-7.86076
7.97049,1.63719,-6.52824,-7.82066
7.98053,1.69495,-6.55921,-7.87303
7.99056,1.68282,-6.67204,-8.05005
8.0006,1.66532,-6.85654,-8.2564
8.01064,1.67878,-7.00678,-8.29486
8.02068,1.71245,-7.14235,-8.17036
8.03072,1.82318,-7.27837,-8.1358
8.04075,2.04031,-7.57166,-8.16228
8.05079,2.27748,-7.94336,-8.00875
8.06146,2.60863,-8.35442,-7.83128
8.07149,2.82276,-8.76547,-7.93199
8.08153,3.19072,-8.97496,-8.38105
8.09157,3.76802,-9.13074,-9.06894
8.10161,4.50723,-9.21723,-9.67841
8.11164,5.12853,-9.26751,-10.25137
8.12168,5.04024,-9.47266,-10.67111
8.13172,4.32498,-9.77553,-10.79979
8.14176,3.34979,-10.15411,-10.51458
8.15179,2.4569,-10.40221,-9.98173
8.16183,1.89815,-10.58985,-9.41161
8.17187,1.26743,-11.003,-9.02868
8.18191,0.37858,-11.48573,-8.98664
8.19194,-0.45864,-11.89903,-9.12146
8.20198,-1.03729,-12.15806,-8.83056
8.21202,-1.25292,-12.06618,-8.29696
8.22206,-1.33656,-11.70839,-7.98586
8.2321,-1.48845,-11.13708,-7.81213
8.24213,-1.65963,-10.51743,-7.69003
8.25217,-1.89112,-9.96751,-7.59261
8.26221,-2.13174,-9.42881,-7.25967
8.27224,-2.03896,-8.91571,-6.67503
8.28228,-1.775,-8.51962,-5.84918
8.29232,-1.37592,-8.47577,-4.94029
8.30236,-1.20638,-8.37163,-3.93697
8.31239,-1.22164,-7.948,-3.11037
8.32243,-1.51134,-7.39988,-2.82351
8.33247,-2.20865,-7.04494,-2.69093
8.34251,-2.67762,-7.09192,-2.08879
8.35255,-2.55042,-7.05811,-1.50461
8.36258,-2.19279,-6.76003,-1.27671
8.37262,-1.61698,-6.70421,-1.34285
8.38266,-0.96801,-6.50654,-1.84758
8.3927,-0.69537,-6.00376,-2.34018
8.40273,-0.97414,-5.82898,-2.62973
8.41277,-1.84518,-6.42664,-2.26746
8.42281,-2.93604,-7.11826,-1.32803
8.43285,-3.25836,-7.26206,-0.52044
8.44289,-2.97884,-6.98957,0.10744
8.45292,-2.23529,-6.7096,0.08604
8.46296,-1.48994,-6.43801,-0.5776
8.473,-1.24109,-6.03099,-1.41901
8.48304,-1.21865,-5.90889,-2.00754
8.49307,-1.60097,-6.14681,-2.12904
8.50311,-2.07667,-6.39656,-1.76692
8.51315,-2.42278,-6.53003,-1.21476
8.52319,-2.78161,-6.75374,-0.67367
8.53322,-2.58933,-6.86088,-0.51311
8.54326,-2.19833,-6.60021,-0.8239
8.5533,-1.92135,-6.42394,-1.64826
8.56334,-1.55773,-6.37905,-2.37026
8.57337,-1.06153,-6.2152,-2.71368
8.58341,-0.62294,-5.85113,-2.63078
8.59345,-0.50398,-5.58073,-2.4346
8.60349,-0.55486,-5.30869,-2.57018
8.61352,-0.58628,-4.99984,-2.75902
8.62356,-0.61815,-4.688,-2.81064
8.6336,-0.47839,-4.99266,-2.49551
8.64364,-0.36691,-5.54198,-1.33896
8.65367,-0.42347,-5.71631,-0.0823
8.66371,-0.4332,-5.60692,0.64913
8.67375,-0.54363,-5.57535,0.71198
8.68379,-0.85308,-5.8634,0.52508
8.69382,-1.00721,-6.33207,0.6391
8.70386,-1.0943,-6.61069,1.05958
8.7139,-1.14173,-6.74581,1.40629
8.72394,-1.32384,-7.05107,1.65843
8.73397,-1.66906,-7.43041,1.76902
8.74401,-2.07158,-7.56268,1.72921
8.75405,-2.42144,-7.80151,1.69584
8.76409,-2.70665,-7.93184,1.58212
8.77413,-2.89983,-7.79851,1.09804
8.78416,-3.08598,-7.66504,0.55201
8.7942,-3.33692,-7.54817,0.02693
8.80424,-3.43583,-7.26176,-0.46148
8.81428,-3.55808,-6.93765,-0.79458
8.82431,-3.79077,-6.71813,-1.03594
8.83435,-3.93263,-6.41871,-1.04432
8.84439,-4.16441,-6.00092,-0.94197
8.85443,-4.51891,-5.75656,-0.93883
8.86446,-4.57547,-5.37393,-1.06302
8.8745,-4.07643,-4.956,-1.13141
8.88454,-3.2841,-4.60989,-0.58688
8.89458,-2.64574,-4.20946,0.35659
8.90461,-2.37325,-3.78658,0.81373
8.91465,-2.38193,-3.53594,0.7214
8.92469,-2.21269,-3.26405,0.44757
8.93473,-1.55818,-3.07101,0.09188
8.94476,-0.88047,-3.06637,0.24032
8.9548,-0.8456,-3.12922,0.53585
8.96484,-1.16403,-3.2829,0.40956
8.97488,-1.36634,-3.14448,-0.08978
8.98492,-1.12318,-2.59861,-0.99075
8.99495,-0.46552,-2.00619,-2.18231
9.00499,0.35659,-2.13024,-3.55404
9.01503,0.97654,-2.68061,-4.1306
9.02507,1.14727,-2.75992,-4.59612
9.0351,0.98671,-2.87095,-5.88525
9.04514,0.50802,-3.04662,-7.67985
9.05518,0.11866,-2.89504,-9.68305
9.06522,0.05073,-3.01295,-11.3563
9.07525,-0.22341,-4.0459,-12.14339
9.08529,-0.60005,-5.12284,-12.56627
9.09533,-0.70404,-5.65615,-13.36503
9.10537,-0.6195,-5.66318,-14.44916
9.1154,-0.4115,-5.63715,-15.70866
9.12544,0.00584,-5.80863,-17.24274
9.13548,0.56009,-6.2972,-18.55521
9.14552,0.83109,-7.48023,-18.9929
9.15555,0.85697,-8.78343,-18.69258
9.16559,0.80864,-9.71866,-18.20386
9.17563,0.92267,-10.281,-18.22421
9.18567,1.33252,-10.61843,-18.87693
9.1957,1.68312,-10.82194,-19.92529
9.20574,1.61444,-11.04819,-21.13242
9.21578,0.98342,-11.39236,-21.90784
9.22582,0.00778,-11.90921,-21.72244
9.23585,-0.83423,-12.51075,-21.12389
9.24589,-1.26833,-12.88036,-20.59851
9.25593,-1.33911,-12.81227,-20.01837
9.26597,-1.24094,-12.33119,-19.70488
9.27601,-1.20443,-11.96667,-19.5081
9.28604,-1.2987,-11.58434,-19.33901
9.29608,-1.52286,-11.13199,-19.22185
9.30612,-1.61863,-10.65824,-18.83937
9.31616,-1.61414,-10.06837,-18.1678
9.32619,-1.62462,-9.57456,-17.33477
9.33623,-1.95068,-9.40203,-16.39983
9.34627,-2.60863,-9.44542,-15.38798
9.35631,-3.18788,-9.5376,-14.40442
9.36634,-3.38211,-9.52832,-13.70636
9.37638,-3.10378,-9.28232,-13.2133
9.38642,-2.47501,-8.65998,-12.80599
9.39646,-2.0442,-8.07564,-12.68882
9.40649,-2.00664,-7.73073,-12.71471
9.41653,-2.31878,-7.42382,-12.86315
9.42657,-2.68674,-7.21897,-12.882
9.43661,-2.8491,-7.16375,-12.57734
9.44664,-2.76261,-6.98688,-12.33597
9.45668,-2.49042,-6.32922,-12.3059
9.46672,-1.98928,-5.555,-11.86506
9.47676,-1.45807,-5.10863,-10.58207
9.48679,-1.0922,-4.84631,-8.79974
9.49683,-0.99748,-4.74082,-7.48921
9.50687,-0.93179,-4.79379,-6.68775
9.51691,-0.52463,-4.59283,-6.74417
9.52695,0.13961,-3.66477,-7.16989
9.53698,0.53421,-2.75453,-7.19877
9.54702,0.46448,-2.15568,-6.67339
9.55706,-0.05956,-1.94514,-5.75895
9.5671,-0.45774,-1.89247,-4.71314
9.57713,-0.26381,-1.67055,-3.84419
9.58717,0.11477,-1.53932,-2.85224
9.59721,0.48632,-1.40031,-1.82977
9.60725,0.8857,-1.11061,-0.83408
9.61728,1.04073,-1.06527,0.0639
9.62732,1.11181,-1.23945,0.99554
9.63736,1.13919,-1.46944,1.44625
9.6474,1.42814,-1.50521,1.49667
9.65743,2.12096,-1.1558,1.31591
9.66747,2.75647,-0.971,1.21775
9.67751,2.88756,-0.97549,1.37083
9.68755,2.89878,-0.95858,1.55833
9.69758,2.9932,-1.13635,1.69375
9.70762,2.96282,-1.53543,1.76079
9.71766,2.64589,-1.89606,1.72637
9.7277,2.01637,-2.26177,1.50221
9.73773,1.25187,-2.73867,1.53274
9.74777,0.66289,-3.39438,2.1253
9.75781,0.36302,-4.03348,2.62584
9.76785,0.29583,-4.45755,2.97554
9.77789,0.44996,-4.63024,3.41907
9.78792,0.52104,-4.63443,3.63305
9.79796,0.42871,-4.55961,3.38286
9.808,0.09293,-4.59223,2.83503
9.81804,-0.30122,-4.76132,2.27434
9.82807,-0.24166,-4.647,1.80433
9.83811,0.2879,-4.33261,1.62192
9.84815,0.74789,-4.07433,2.13398
9.85819,0.68714,-4.03947,2.4355
9.86822,0.32621,-4.00685,1.99063
9.87826,0.00239,-4.12805,1.18289
9.8883,0.08215,-4.22861,0.77542
9.89834,0.70659,-3.9654,0.79787
9.90837,1.5055,-3.54028,1.10283
9.91841,1.9399,-3.31896,1.176
9.92845,1.7765,-3.34156,0.60139
9.93849,1.2396,-3.53923,-0.89498
9.94852,0.63087,-3.72209,-2.82321
9.95856,0.44308,-3.75366,-4.57023
9.9686,0.7036,-3.33572,-5.84245
9.97864,0.77587,-3.1171,-6.54635
9.98868,0.30691,-3.33378,-6.38174
9.99871,-0.13018,-3.79271,-5.75731
10.00875,-0.34028,-3.95582,-5.50038
10.01879,-0.57521,-4.18836,-5.81447
10.02883,-0.7865,-4.23774,-6.21505
10.03886,-0.81223,-4.10441,-6.86926
10.0489,-0.78919,-4.09064,-7.37908
10.05894,-0.88885,-3.89148,-7.61536
10.06898,-1.15715,-3.91527,-7.70843
10.07901,-1.54022,-4.40339,-7.7421
10.08905,-1.58047,-4.62709,-8.08761
10.09909,-1.38983,-4.55437,-8.43358
10.10913,-1.19426,-4.56739,-8.86558
10.11916,-1.13814,-4.43122,-9.36327
10.1292,-1.36664,-4.19285,-9.92816
10.13924,-1.48396,-4.21379,-11.16012
10.14928,-1.589,-4.6639,-12.87946
10.15931,-1.24005,-5.07212,-14.02239
10.16935,-0.14575,-5.01989,-14.39574
10.17939,1.08547,-4.39949,-14.49719
10.18943,1.74672,-4.05997,-14.60598
10.19946,1.78248,-4.26976,-14.56258
10.2095,1.63344,-4.95555,-14.64608
10.21954,1.61235,-5.72154,-14.76669
10.22958,1.529,-5.71915,-15.6096
10.23962,1.07964,-5.58118,-16.87418
10.24965,0.69357,-5.52342,-17.65245
10.25969,0.63416,-5.42062,-17.94559
10.26973,0.88765,-5.61919,-17.54755
10.27977,1.18289,-5.82,-16.49246
10.2898,1.06871,-5.69102,-15.78662
10.29984,0.44203,-5.94061,-15.66601
10.30988,-0.03965,-6.64241,-15.87086
10.31992,0.00688,-7.13801,-15.79649
10.32995,0.50144,-7.04614,-15.31556
10.33999,0.9713,-6.67758,-15.0935
10.35003,1.09355,-6.56849,-15.08467
10.36007,0.9481,-6.5052,-15.24508
10.3701,0.8058,-6.49756,-15.2578
10.38014,0.81268,-6.56146,-15.45487
10.39018,0.87059,-6.42095,-15.71554
10.40022,0.92222,-6.4208,-15.82627
10.41025,0.87269,-6.42963,-15.63952
10.42029,0.68773,-6.1118,-15.37706
10.43033,0.45505,-5.98206,-15.22652
10.44037,0.07557,-6.17599,-14.9078
10.45041,-0.15009,-6.24737,-14.60313
10.46044,-0.10415,-6.12871,-14.64922
10.47048,-0.03516,-6.09713,-14.72763
10.48052,-0.0211,-6.09294,-14.69441
10.49056,-0.11492,-6.04027,-14.45155
10.50059,-0.42871,-6.15609,-14.14973
10.51063,-0.68534,-6.3994,-14.04798
10.52067,-0.80879,-6.45387,-14.26765
10.53071,-0.83408,-6.21849,-14.83777
10.54074,-0.82735,-6.1944,-15.1725
10.55078,-0.87822,-6.20562,-14.93024
10.56082,-1.18259,-6.11629,-14.50093
10.57086,-1.61953,-6.39282,-14.05845
10.58089,-1.97073,-6.40688,-13.6067
10.59093,-1.90923,-6.24587,-13.26313
10.60097,-1.60172,-6.25769,-12.5938
10.61101,-1.35751,-6.1311,-11.95739
10.62104,-0.9918,-6.08786,-11.57357
10.63108,-0.71033,-6.16342,-11.29315
10.64112,-0.54618,-5.88225,-11.09772
10.65116,-0.5366,-5.32635,-11.17075
10.66119,-0.59661,-5.06882,-11.04909
10.67123,-0.39923,-4.94148,-10.45727
10.68127,-0.01541,-4.8095,-9.49286
10.69131,0.58793,-4.80651,-8.5482
10.70135,0.90995,-4.49437,-8.52231
10.71138,0.82016,-4.15155,-9.38752
10.72142,0.43724,-4.14182,-10.09216
10.73146,-0.01092,-4.26557,-10.14348
10.7415,-0.0217,-4.11638,-9.79797
10.75153,0.16999,-4.03333,-9.11787
10.76157,0.53914,-3.97752,-8.2567
10.77161,1.01215,-3.8409,-7.62598
10.78165,1.24304,-3.6356,-7.16495
10.79168,0.83019,-3.65714,-6.63119
10.80172,0.39804,-4.04051,-6.58226
10.81176,0.58134,-4.18806,-6.39491
10.8218,1.27581,-3.73106,-5.85367
10.83183,1.63479,-3.2633,-5.27398
10.84187,1.42126,-3.07894,-4.59387
10.85191,1.20264,-3.43837,-3.9624
10.86195,1.00916,-3.66702,-3.64757
10.87198,0.87568,-3.38271,-3.27452
10.88202,1.18827,-3.09974,-3.42206
10.89206,1.40704,-2.92093,-3.59429
10.9021,1.66502,-2.95669,-3.23786
10.91214,2.01113,-2.83967,-2.42323
10.92217,2.35066,-2.59636,-1.65514
10.93221,2.82755,-2.52513,-1.38699
10.94225,3.32914,-2.68001,-1.56222
10.95229,3.58188,-2.92093,-1.67534
10.96232,3.8201,-2.90252,-1.72787
10.97236,3.85287,-2.79882,-2.06171
10.9824,3.56796,-3.29337,-2.08281
10.99244,3.22125,-3.86185,-1.22838
11.00247,3.05934,-4.29595,-0.48707
11.01251,3.13775,-4.62635,-0.24092
11.02255,3.08523,-4.86966,-0.89184
11.03259,2.86945,-5.17312,-1.68088
11.04262,2.46663,-5.65256,-1.99602
11.05266,2.16301,-6.00032,-2.06231
11.0627,2.22107,-6.24198,-1.78263
11.07274,2.6221,-6.26832,-1.22867
11.08277,2.95385,-6.24288,-0.80939
11.09281,3.02118,-6.5034,-1.01843
11.10285,2.77742,-6.86433,-1.31756
11.11289,2.2905,-7.25967,-1.48949
11.12292,2.10675,-7.46138,-1.27342
11.13296,2.40498,-7.42382,-0.68758
11.143,2.57317,-7.33703,0.23807
11.15304,2.47396,-7.48592,0.59047
11.16308,1.88334,-7.76724,0.10011
11.17311,1.30364,-7.92825,-1.12752
11.18315,0.98656,-8.00995,-2.45106
11.19319,0.65437,-8.22094,-3.39438
11.20323,0.34147,-8.37656,-4.11234
11.21326,0.21757,-8.67808,-4.43526
11.2233,0.32232,-8.84433,-4.64146
11.23334,0.73008,-8.76622,-4.74261
11.24338,1.32848,-8.63693,-4.66869
11.25341,1.8974,-8.42505,-4.81893
11.26345,2.36487,-8.12353,-5.3901
11.27349,2.34078,-8.05604,-6.3171
11.28353,1.76288,-8.41577,-6.66037
11.29356,1.40719,-8.76143,-6.55532
11.3036,1.52047,-8.7553,-5.91308
11.31364,1.53663,-8.85376,-5.20739
11.32368,1.50027,-9.04021,-4.7881
11.33371,1.44116,-9.12041,-4.53342
11.34375,1.52571,-9.15588,-4.46489
11.35379,1.81555,-9.00624,-4.29116
11.36383,1.99153,-8.79824,-4.08615
11.37387,1.81271,-8.76532,-4.33291
11.3839,1.51987,-8.75859,-4.88776
11.39394,1.36784,-8.69948,-5.42032
11.40398,1.22583,-8.64172,-5.8625
11.41402,0.94182,-8.59249,-6.00765
11.42405,0.81178,-8.53593,-6.20083
11.43409,1.03953,-8.7137,-6.27834
11.44413,0.81433,-8.8584,-5.25243
11.45417,0.37125,-9.01148,-3.91871
11.4642,0.12315,-9.11847,-3.06518
11.47424,0.17508,-9.11936,-2.79553
11.48491,0.9065,-8.84972,-3.77266
11.49494,0.9065,-8.84972,-3.77266
11.50498,0.97249,-8.7737,-3.7173
11.51502,0.84755,-8.71878,-3.39917
11.52506,0.58778,-8.82293,-3.22544
11.53509,0.3726,-9.03138,-3.25941
11.54513,0.36691,-9.14585,-3.46531
11.55517,0.37694,-9.1686,-3.82953
11.56521,0.40522,-9.1463,-4.28502
11.57524,0.40372,-9.06983,-4.30777
11.58528,0.39235,-9.03243,-4.23549
11.59532,0.40552,-9.03901,-4.42014
11.60536,0.40507,-9.00609,-4.9738
11.6154,0.63012,-8.94294,-5.50876
11.62543,0.90261,-8.88593,-5.6581
11.63547,0.94676,-8.83191,-5.40775
11.64551,0.79607,-8.86947,-4.84152
11.65555,0.62144,-9.00729,-4.47865
11.66558,0.54708,-9.20122,-4.33156
11.67562,0.46986,-9.43091,-4.22008
11.68566,0.35464,-9.46772,-3.98964
11.6957,0.25304,-9.32123,-3.67405
11.70573,0.18585,-9.28816,-3.63829
11.71577,0.2674,-9.28831,-4.01971
11.72581,0.50847,-9.03018,-4.60465
11.73585,0.77587,-8.7731,-4.97261
11.74588,0.91249,-8.60446,-5.11042
11.75592,0.97459,-8.62945,-5.01346
11.76596,0.86057,-8.74512,-4.65837
11.776,0.58838,-8.86094,-4.18028
11.78603,0.51909,-8.86393,-4.07149
11.79607,0.68848,-8.68497,-4.54255
11.80611,1.0108,-8.57857,-5.098
11.81615,1.29571,-8.46844,-5.20814
11.82618,1.37697,-8.40649,-4.96453
11.83622,1.11001,-8.48415,-4.30014
11.84626,0.78739,-8.68212,-3.8213
11.8563,0.5586,-8.72881,-3.74842
11.86633,0.56608,-8.64022,-4.07284
11.87637,0.77153,-8.45856,-4.51142
11.88641,0.96337,-8.29157,-4.82881
11.89645,0.97249,-8.34484,-4.74366
11.90649,0.92057,-8.62571,-4.19359
11.91652,0.71452,-8.73599,-3.2805
11.92656,0.62923,-8.79749,-2.84207
11.9366,0.68474,-8.71908,-3.12009
11.94664,0.83199,-8.47353,-4.03019
11.95667,1.08622,-8.21017,-4.85963
11.96671,1.2405,-8.07085,-5.23103
11.97675,1.17316,-8.06786,-5.4718
11.98679,0.86191,-8.13999,-5.44501
11.99682,0.43395,-8.12218,-5.36331
12.00686,0.063,-8.03299,-5.62652
12.0169,-0.05447,-7.76754,-6.35601
12.02694,-0.07527,-7.49355,-7.6583
12.03697,0.14979,-7.4524,-9.10679
12.04701,0.70165,-7.36142,-9.37764
12.05705,0.67307,-6.9966,-7.62598
12.06709,0.29449,-6.98164,-5.49619
12.07712,-0.13692,-7.15567,-4.29235
12.08716,-0.38816,-7.49056,-4.1707
12.0972,0.14171,-7.75272,-4.28712
12.10724,0.68908,-7.34736,-4.25674
12.11727,0.80789,-6.9559,-4.15753
12.12731,0.69911,-6.7313,-4.16711
12.13735,0.47241,-6.56071,-4.66974
12.14739,0.15862,-6.52929,-5.35314
12.15805,0.32067,-6.95905,-6.02082
12.16809,0.92536,-7.01995,-6.0084
12.17813,1.40989,-6.65738,-5.92819
12.18817,1.45508,-6.32817,-5.48362
12.1982,1.00556,-5.97368,-4.6039
12.20824,0.36377,-5.66304,-3.94056
12.21828,-0.07811,-5.79771,-3.6558
12.22832,0.25992,-6.57523,-3.2612
12.23835,0.77018,-7.17422,-2.53591
12.24839,1.10343,-6.98912,-2.61432
12.25843,1.39986,-6.30737,-2.95085
12.26847,1.27671,-5.48167,-3.05231
12.2785,1.37697,-5.07182,-2.92751
12.28854,2.13398,-5.71646,-2.48728
12.29858,2.65472,-6.90159,-1.6312
12.30862,2.40542,-7.16869,-0.84336
12.31865,1.62596,-6.71259,-0.89812
12.32869,1.15954,-6.4199,-1.0928
12.33873,1.37622,-6.28987,-0.97444
12.34877,2.63228,-6.81943,-0.65661
12.35881,3.591,-7.35738,-0.4546
12.36884,3.97692,-6.90518,-1.31337
12.37888,4.38648,-6.2345,-2.38403
12.38892,3.92455,-5.95109,-2.61252
12.39896,2.9935,-5.73381,-2.32731
12.40899,2.36562,-5.97578,-2.23065
12.41903,2.01786,-7.24919,-2.15613
12.42907,2.5802,-8.3806,-2.09268
12.43911,3.36819,-8.29381,-2.18531
12.44914,4.09259,-7.4738,-3.03914
12.45918,4.68186,-6.53213,-4.40398
12.46922,4.64864,-6.08771,-5.0983
12.47926,4.54225,-6.16447,-4.82252
12.48929,4.97276,-6.73893,-4.65074
12.49933,5.90305,-7.5775,-4.81833
12.50937,6.74147,-7.95249,-5.33204
12.51941,6.64556,-7.89398,-6.10327
12.52944,5.66289,-8.01175,-5.88525
12.53948,4.48075,-8.33751,-4.68904
12.54952,3.55554,-8.74317,-3.98889
12.55956,2.84296,-9.01701,-4.14212
12.56959,2.41889,-9.23159,-5.16295
12.57963,1.89546,-9.33305,-7.30127
12.58967,1.29631,-9.60269,-8.70906
12.59971,1.1374,-9.60239,-7.70035
12.60975,1.28209,-9.83388,-4.80397
12.61978,1.27865,-10.40056,-1.82663
12.62982,1.16358,-11.09054,-0.70225
12.63986,0.92252,-11.64869,-2.19683
12.6499,1.02621,-11.3735,-5.38995
12.65993,1.68567,-10.62217,-8.64082
12.66997,2.1253,-9.8466,-10.08527
12.68001,1.93841,-9.87084,-10.33966
12.69005,1.18558,-10.40101,-8.77101
12.70008,0.25199,-10.98071,-6.34419
12.71012,-0.20366,-11.64465,-4.59447
12.72016,-0.04295,-11.6855,-4.07927
12.7302,0.27922,-11.26472,-5.15846
12.74023,0.43335,-10.69999,-7.27688
12.75027,0.12689,-10.11939,-8.84119
12.76031,-0.54318,-10.33188,-9.42298
12.77035,-1.18573,-10.78274,-8.72193
12.78038,-1.51343,-10.9635,-7.40377
12.79042,-1.54187,-10.87057,-6.53707
12.80046,-1.30858,-10.64986,-6.37935
12.8105,-0.48303,-10.08887,-6.7292
12.82053,0.17852,-9.28501,-7.25937
12.83057,0.2062,-9.13912,-7.69377
12.84061,-0.31214,-9.3531,-7.67102
12.85065,-0.69148,-9.45515,-6.90593
12.86069,-0.58015,-9.54329,-6.00256
12.87072,-0.36616,-9.44438,-5.25168
12.88076,-0.58523,-9.1478,-5.01151
12.8908,-1.24139,-9.08136,-5.57565
12.90084,-1.91237,-9.18999,-6.50265
12.91087,-1.99362,-9.18326,-7.07771
12.92091,-1.20039,-8.78882,-7.03476
12.93095,-0.28386,-8.29516,-6.67623
12.94099,0.21832,-8.06307,-6.43068
12.95102,0.3114,-8.03614,-6.56999
12.96106,0.30825,-7.93618,-6.91251
12.9711,0.309,-7.77607,-7.03761
12.98114,0.08739,-7.77921,-7.05556
12.99117,-0.47585,-8.03988,-6.80103
13.00121,-1.19306,-8.3607,-6.53228
13.01125,-1.6086,-8.54057,-6.44669
13.02129,-1.60831,-8.50974,-6.36708
13.03132,-1.26145,-8.3423,-6.3156
13.04136,-0.62803,-7.99334,-6.2562
13.0514,-0.00973,-7.64708,-6.2755
13.06144,0.36676,-7.40706,-6.3382
13.07148,0.53914,-7.19383,-6.38818
13.08151,0.57311,-7.07472,-6.19619
13.09155,0.26007,-7.1621,-6.0901
13.10159,-0.48782,-7.36486,-6.88363
13.11163,-0.9074,-7.40601,-7.41798
13.12166,-0.71751,-7.32012,-7.16091
13.1317,-0.14754,-7.16195,-6.73953
13.14174,0.36227,-6.98568,-6.3982
13.15178,0.58763,-6.87121,-6.29286
13.16181,0.47929,-6.86073,-6.38893
13.17185,0.15667,-6.9981,-6.77125
13.18189,-0.2252,-7.16091,-7.32895
13.19193,-0.41644,-7.16001,-7.62329
13.20196,-0.34462,-7.08295,-7.35798
13.212,-0.28521,-7.12455,-6.89336
13.22204,-0.27144,-7.18874,-6.75195
13.23208,-0.19812,-7.15073,-6.83066
13.24211,-0.09113,-7.06514,-6.94498
13.25215,0.082,-6.96174,-6.94184
13.26219,0.23418,-6.80013,-6.85325
13.27223,-0.02664,-6.7913,-7.06888
13.28227,-0.46762,-7.03581,-7.50433
13.2923,-0.60843,-7.0412,-7.36816
13.30234,-0.4555,-6.98778,-7.02115
13.31238,-0.27818,-6.94303,-6.88303
13.32242,-0.25244,-6.9366,-6.78023
13.33245,-0.21024,-6.9161,-6.86762
13.34249,-0.1438,-6.80701,-6.84143
13.35253,-0.1866,-6.7521,-6.70915
13.36257,-0.32621,-6.86298,-6.75105
13.3726,-0.40926,-6.85161,-7.00633
13.38264,-0.36541,-6.80163,-7.06798
13.39268,-0.26142,-6.78906,-6.87525
13.40272,-0.34791,-6.80821,-6.79968
13.41275,-0.52643,-6.88902,-6.9381
13.42279,-0.56832,-6.82856,-7.04973
13.43283,-0.4763,-6.79564,-7.05691
13.44287,-0.25064,-6.71259,-7.06349
13.4529,-0.03008,-6.62131,-7.02578
13.46294,0.0606,-6.63688,-7.00199
13.47298,-0.0404,-6.68252,-7.07352
13.48302,-0.16116,-6.731,-7.43145
13.49305,-0.26321,-6.80716,-7.72908
13.50309,-0.31544,-7.02788,-7.60443
13.51313,-0.34611,-7.245,-7.43534
13.52317,-0.27324,-7.25802,-7.52168
13.53321,0.00554,-7.18859,-7.65157
13.54324,0.2252,-7.19263,-7.68599
13.55328,0.3916,-7.20236,-7.77278
13.56332,0.42961,-7.30022,-7.87169
13.57335,0.35434,-7.42352,-7.94022
13.58339,0.12869,-7.63107,-8.00247
13.59343,-0.0018,-7.86121,-8.26823
13.60347,0.09203,-7.82979,-8.39287
13.61351,0.25453,-7.68958,-8.22767
13.62354,0.42781,-7.58797,-7.97389
13.63358,0.5767,-7.5163,-7.64947
13.64362,0.59571,-7.3719,-7.40736
13.65366,0.05552,-7.39195,-7.70679
13.66369,-0.74699,-7.89727,-8.67853
13.67373,-0.87314,-8.11993,-8.8575
13.68377,-0.4338,-8.19954,-7.80136
13.69381,0.12734,-8.27765,-6.42768
13.70384,0.61711,-8.32554,-5.81043
13.71388,0.9291,-8.27556,-6.05479
13.72392,0.97818,-8.20119,-6.55143
13.73396,0.81837,-8.10347,-7.37968
13.744,0.53525,-8.04437,-8.3402
13.75403,0.3301,-8.06322,-8.47757
13.76407,0.09756,-7.99214,-8.28065
13.77411,-0.36556,-7.99648,-8.16498
13.78414,-0.74385,-8.01429,-8.07714
13.79418,-0.87987,-8.09674,-8.25925
13.80422,-0.71213,-8.43043,-7.88889
13.81426,-0.28521,-8.6281,-7.30351
13.8243,0.14979,-8.48565,-7.11901
13.83433,0.26725,-8.1952,-7.16779
13.84437,0.13602,-7.90805,-7.15507
13.85441,0.00643,-7.75198,-7.25593
13.86445,0.00269,-7.59979,-7.42681
13.87448,-0.01272,-7.39,-8.18099
13.88452,-0.25783,-7.23662,-9.44752
13.89456,-0.60349,-7.60129,-10.16054
13.9046,-0.88406,-8.20388,-9.9717
13.91463,-1.06931,-8.64621,-9.206
13.92467,-1.07081,-8.82922,-8.05978
13.93471,-0.89618,-8.84538,-7.21328
13.94475,-0.57296,-8.82024,-6.59692
13.95478,-0.29868,-8.92259,-5.97428
13.96482,-0.07033,-9.13463,-5.38785
13.97486,0.14694,-9.47026,-5.15053
13.9849,0.2903,-9.74859,-5.16923
13.99494,0.13063,-9.70295,-5.58986
14.00497,-0.46986,-9.63202,-6.90682
14.01501,-0.85608,-9.64968,-8.26269
14.02505,-0.75268,-9.62783,-8.74976
14.03509,-0.32905,-9.58145,-8.59952
14.04512,0.2044,-9.75413,-7.82275
14.05516,0.62758,-10.06986,-6.66965
14.0652,0.90231,-10.09859,-5.75431
14.07524,0.97653,-9.77837,-5.21487
14.08527,0.80655,-9.41969,-5.06149
14.09531,0.73637,-9.46967,-4.91949
14.10535,1.02681,-9.48613,-4.7275
14.11539,1.62866,-9.1243,-4.82087
14.12542,2.07622,-8.59189,-5.39099
14.13546,1.65754,-7.87662,-6.17509
14.1455,0.58194,-7.38955,-6.54171
14.15554,-0.31753,-7.25533,-5.92774
14.16557,-0.8245,-7.19547,-4.97605
14.17561,-1.16283,-6.87151,-4.16786
14.18565,-0.98701,-6.44639,-3.80035
14.19569,-0.4953,-5.93059,-3.49449
14.20573,-0.11208,-5.2421,-3.07999
14.21576,0.38472,-4.51127,-2.85823
14.2258,0.80999,-3.93367,-3.1789
14.23584,1.12797,-3.69844,-3.69216
14.24588,1.16433,-3.60193,-4.39665
14.25591,0.01676,-3.63649,-5.1185
14.26595,-1.50565,-4.26003,-5.20589
14.27599,-2.42533,-4.69967,-4.98188
14.28603,-2.54145,-4.70281,-4.65612
14.29606,-2.02579,-4.74112,-4.23534
14.3061,-1.18498,-4.62769,-3.98335
14.31614,-0.60992,-4.32034,-4.01612
14.32618,-0.35524,-4.41221,-4.24178
14.33621,-0.25393,-4.61812,-4.56918
14.34625,-0.39115,-4.87684,-4.77494
14.35629,-0.53241,-5.35074,-4.75608
14.36633,-0.66813,-5.68114,-4.74636
14.37636,-0.90231,-5.95453,-4.58011
14.3864,-1.11824,-6.35975,-4.26826
14.39644,-1.12677,-6.59169,-3.92544
14.40648,-1.00152,-6.55667,-3.66822
14.41652,-0.71706,-6.52674,-3.64906
14.42655,-0.30107,-6.60051,-3.78404
14.43659,0.02589,-6.78936,-3.95043
14.44663,0.12375,-7.03342,-4.16412
14.45667,-0.08065,-7.29064,-4.12326
14.4667,-0.44816,-7.64543,-3.95612
14.47674,-0.84216,-7.90101,-4.03169
14.48678,-1.10807,-7.96701,-4.12895
14.49682,-1.06437,-8.10632,-4.09678
14.50685,-0.89364,-8.28244,-4.12371
14.51689,-0.76405,-8.30833,-4.13419
14.52693,-0.58254,-8.28439,-4.49032
14.53697,-0.49874,-8.24159,-4.90482
14.54701,-0.42602,-8.3001,-5.07855
14.55704,-0.44652,-8.37971,-5.07541
14.56708,-0.58523,-8.43567,-5.0582
14.57712,-0.73936,-8.46051,-5.00403
14.58716,-0.71676,-8.41712,-5.00523
14.59719,-0.6403,-8.43103,-4.99969
14.60723,-0.54708,-8.40529,-5.1001
14.61727,-0.31229,-8.22393,-5.24929
14.62731,-0.11986,-8.05469,-5.37394
14.63734,-0.15532,-8.1144,-5.41254
14.64738,-0.31514,-8.23501,-5.60961
14.65742,-0.55231,-8.38494,-5.93119
14.66746,-0.64,-8.43103,-5.9475
14.67749,-0.54648,-8.28903,-5.67605
14.68753,-0.44532,-8.11784,-5.4926
14.69757,-0.41988,-8.08731,-5.41209
14.70761,-0.54333,-8.23381,-5.39503
14.71764,-0.61935,-8.32898,-5.47808
14.72768,-0.69581,-8.37596,-5.5936
14.73772,-0.79278,-8.3815,-5.63011
14.74776,-0.76151,-8.26164,-5.75401
14.7578,-0.7443,-8.17455,-5.79232
14.76783,-0.74445,-8.1961,-5.5523
14.77787,-0.68295,-8.20388,-5.27458
14.78791,-0.6207,-8.13475,-5.08484
14.79795,-0.61696,-8.06307,-5.1182
14.80798,-0.66289,-7.93962,-5.20963
14.81802,-0.80505,-7.84849,-5.14693
14.82806,-0.94571,-7.87962,-4.94852
14.8381,-0.95888,-7.85208,-4.72421
14.84813,-1.00272,-7.81452,-4.52549
14.85817,-1.04312,-7.79343,-4.34757
14.86821,-1.0533,-7.59022,-4.37391
14.87825,-1.0111,-7.3074,-4.3751
14.88828,-0.98866,-7.059,-4.20302
14.89832,-1.09894,-6.83245,-3.93293
14.90836,-1.31307,-6.64675,-3.52636
14.9184,-1.63449,-6.41347,-3.18534
14.92843,-2.05587,-6.28119,-2.9537
14.93847,-2.37011,-6.08666,-2.69752
14.94851,-2.415,-5.65885,-2.28048
14.95855,-2.32193,-5.23193,-1.7979
14.96859,-2.23244,-4.98637,-1.41707
14.97862,-2.19503,-4.77,-1.22703
14.98866,-2.19204,-4.4812,-1.15071
14.9987,-2.04016,-4.39605,-1.02292
15.00874,-1.74193,-4.3371,-0.93314
15.01877,-1.51972,-4.1065,-1.00272
15.02881,-1.42679,-3.91272,-1.14637
15.03885,-1.44864,-3.66867,-1.34135
15.04889,-1.23511,-3.35143,-1.39477
15.05892,-1.14278,-2.92422,-1.25426
15.06896,-1.15595,-2.53726,-1.21625
15.079,-1.10448,-2.33195,-1.34345
15.08904,-1.07829,-2.34826,-1.71305
15.09907,-0.97249,-2.65622,-2.59846
15.10911,-0.95229,-3.14643,-3.41623
15.11915,-1.03714,-3.28918,-3.74244
15.12919,-1.06108,-3.25177,-3.84988
15.13922,-1.04806,-3.05979,-3.86035
15.14926,-0.65661,-2.7671,-4.02869
15.1593,0.02005,-2.83997,-4.59597
15.16934,0.81478,-2.97061,-5.59734
15.17938,1.63045,-2.90117,-7.30875
15.18941,2.01861,-2.92556,-9.34277
15.19945,2.08236,-2.99664,-11.09234
15.20949,1.89067,-3.23457,-12.30919
15.21953,1.85685,-3.41039,-12.64288
15.22956,2.11947,-3.8207,-12.87078
15.2396,2.29005,-4.02405,-13.76247
15.24964,2.59202,-3.7565,-15.50814
15.25968,2.97524,-3.59983,-17.60397
15.26971,3.36131,-3.57484,-19.7366
15.27975,3.56946,-3.60537,-21.43304
15.28979,3.39333,-4.18566,-22.37651
15.29983,2.90013,-4.81504,-22.57822
15.30986,2.43281,-5.21906,-21.99418
15.3199,2.19488,-5.85741,-20.82028
15.32994,2.1075,-6.56715,-19.91407
15.33998,1.91566,-6.89934,-19.59011
15.35001,1.88558,-6.93495,-19.69575
15.36005,2.1078,-6.89336,-19.84075
15.37009,2.13892,-6.88991,-19.97453
15.38013,1.93751,-7.00259,-19.97063
15.39017,1.61923,-7.16734,-19.43748
15.4002,1.24708,-7.39494,-18.94412
15.41024,0.93,-7.57645,-18.84012
15.42028,0.76914,-7.55281,-18.70575
15.43032,0.53002,-7.3707,-18.47845
15.44035,0.26456,-7.31937,-18.06276
15.45039,-0.01706,-7.29633,-17.34719
15.46043,-0.2484,-7.03012,-16.72739
15.47047,-0.29808,-6.68715,-16.19722
15.4805,-0.58553,-5.64418,-15.55004
15.49117,-0.58553,-5.64418,-15.55004
15.50121,-0.97549,-5.49394,-15.10247
15.51124,-1.15146,-5.60737,-14.19343
15.52128,-0.95768,-5.5104,-13.16946
15.53132,-0.48857,-5.12838,-12.34645
15.54136,-0.01167,-4.7049,-11.61936
15.55139,0.31454,-4.34518,-11.44788
15.56143,0.48842,-3.91751,-11.76077
15.57147,0.44652,-3.55659,-11.74476
15.58151,0.3316,-3.38959,-10.8402
15.59154,0.14305,-3.36311,-9.47116
15.60158,0.00643,-3.2407,-8.238
15.61162,0.07617,-3.10034,-7.27538
15.62166,0.36018,-3.08238,-6.40254
15.63169,0.62713,-2.78146,-5.70972
15.64173,0.722,-2.30816,-5.04623
15.65177,0.79188,-2.15119,-4.35804
15.66181,0.77797,-1.9818,-3.67016
15.67185,0.51326,-1.6921,-3.06787
15.68188,0.23553,-1.63045,-2.74181
15.69192,0.25723,-1.56581,-2.38088
15.70196,0.64973,-1.48366,-1.97776
15.712,1.14637,-1.4039,-1.42934
15.72203,1.40285,-1.45223,-0.7434
15.73207,1.47752,-1.64287,0.29718
15.74211,1.49398,-1.82782,1.28479
15.75215,1.52017,-2.10121,1.96325
15.76218,1.53304,-2.56823,2.18531
15.77222,1.30738,-3.02268,2.01801
15.78226,1.17211,-3.44855,1.26055
15.7923,1.31696,-3.61509,0.32441
15.80233,1.47124,-3.51843,-0.32322
15.81237,1.57673,-3.32106,-0.67367
15.82241,1.68791,-3.21481,-0.76495
15.83245,1.79834,-3.13835,-0.6186
15.84248,1.77096,-3.07251,-0.51969
15.85252,1.50924,-3.20224,-0.50937
15.86256,1.25546,-3.42356,-1.01559
15.8726,1.17855,-3.49538,-1.59753
15.88264,1.08368,-3.62736,-1.96205
15.89267,0.9086,-3.95283,-2.21449
15.90271,0.63162,-4.499,-2.2923
15.91275,0.15682,-4.66705,-2.27105
15.92279,-0.3907,-4.49437,-2.40617
15.93282,-0.83498,-4.25031,-2.94846
15.94286,-1.12662,-3.88504,-3.63604
15.9529,-1.25875,-3.5711,-4.14766
15.96294,-1.29107,-3.55434,-4.01553
15.97297,-1.48979,-3.57963,-2.97734
15.98301,-1.69285,-3.55509,-1.9188
15.99305,-1.47243,-3.65056,-1.58661
16.00309,-0.89244,-3.71864,-1.88274
16.01312,-0.04654,-3.43358,-2.3327
16.02316,0.54049,-3.10603,-2.73148
16.0332,0.72888,-2.82291,-3.23023
16.04324,0.56623,-2.59068,-3.93756
16.05327,0.34462,-2.98063,-4.69862
16.06331,0.12599,-3.5105,-5.33054
16.07335,-0.09966,-3.77551,-5.63026
16.08339,-0.56982,-4.18312,-5.85697
16.09343,-1.06033,-4.66301,-6.13454
16.10346,-1.17735,-4.83733,-6.36379
16.1135,-0.53989,-4.73528,-6.60246
16.12354,0.07227,-4.61782,-7.21927
16.13358,0.17792,-4.66989,-8.68048
16.14361,-0.28865,-4.89584,-10.55409
16.15365,-0.64015,-5.09351,-12.1998
16.16432,-0.45176,-5.00628,-13.20088
16.17435,-0.09966,-5.00702,-13.16886
16.18439,0.23553,-5.18285,-12.97657
16.19443,0.31948,-5.5342,-12.80015
16.20447,0.34192,-5.95902,-12.59245
16.2145,0.35644,-6.14547,-12.27597
16.22454,0.59331,-6.32907,-12.26564
16.23458,0.92611,-6.45986,-13.21375
16.24462,0.90665,-6.53991,-14.4122
16.25465,0.41659,-6.75823,-15.04696
16.26469,-0.10609,-6.98314,-15.21755
16.27473,-0.36751,-7.0177,-15.38379
16.28477,-0.49156,-6.91206,-15.70566
16.29481,-0.56189,-6.88677,-15.88673
16.30484,-0.56458,-6.92658,-15.49976
16.31488,-0.69761,-6.94019,-14.81098
16.32492,-0.98102,-6.9556,-14.46921
16.33496,-1.24498,-6.86492,-14.40606
16.34499,-1.46091,-6.77335,-14.09826
16.35503,-1.52511,-6.75883,-13.51931
16.36507,-1.72442,-6.84502,-13.00426
16.37511,-2.15538,-6.94124,-12.54696
16.38514,-2.74196,-7.15657,-11.97864
16.39518,-3.12024,-7.44881,-11.56459
16.40522,-3.1192,-7.38671,-11.5827
16.41526,-2.87753,-7.08878,-11.93988
16.42529,-2.81768,-6.99391,-12.48561
16.43533,-3.01041,-7.04629,-12.58123
16.44537,-3.28514,-7.08235,-12.33403
16.45541,-3.61764,-7.11587,-11.97565
16.46544,-3.84763,-7.23857,-11.70944
16.47548,-3.77266,-7.19592,-11.77872
16.48552,-3.57065,-7.04883,-11.91011
16.49556,-3.5087,-6.97745,-11.76092
16.5056,-3.49404,-6.97655,-11.71333
16.51563,-3.53205,-7.06634,-11.71288
16.52567,-3.55135,-7.23752,-11.7072
16.53571,-3.52486,-7.31339,-11.51177
16.54575,-3.50406,-7.3716,-11.36647
16.55578,-3.41967,-7.45899,-11.30632
16.56582,-3.28694,-7.59979,-11.36273
16.57586,-3.19372,-7.91358,-11.55921
16.5859,-3.05515,-8.26284,-11.59796
16.59593,-2.97225,-8.67838,-11.54005
16.60597,-2.95968,-9.15543,-11.22536
16.61601,-2.97899,-9.64714,-10.97996
16.62605,-2.98527,-10.14184,-10.85576
16.63608,-2.9525,-10.37213,-10.66796
16.64612,-2.88112,-10.21112,-10.99791
16.65616,-3.06592,-9.85109,-11.32577
16.6662,-3.35398,-9.4149,-11.37276
16.67623,-3.7559,-8.9208,-10.95931
16.68627,-4.36239,-8.48415,-10.49199
16.69631,-4.24342,-7.56029,-10.30449
16.70635,-3.20584,-6.18617,-10.45473
16.71639,-1.84728,-4.89973,-11.13289
16.72642,-0.85742,-3.90674,-11.81299
16.73646,-0.23149,-3.16184,-11.84337
16.7465,0.05297,-2.53426,-11.32113
16.75654,-0.22476,-2.06305,-10.24374
16.76657,-0.59631,-1.90294,-8.69484
16.77661,-0.65422,-1.82663,-7.09028
16.78665,-0.59376,-1.86793,-5.69521
16.79669,-0.00389,-1.99706,-4.67288
16.80672,1.3195,-1.61264,-4.13568
16.81676,2.83578,-0.68295,-4.05204
16.8268,3.76458,-0.00883,-4.5427
16.83684,3.85586,-0.19602,-5.40805
16.84687,3.37642,-0.90501,-6.10327
16.85691,2.72819,-1.57509,-6.10821
16.86695,1.90309,-2.05123,-5.48916
16.87699,1.1365,-2.58873,-4.77733
16.88702,0.77452,-3.04348,-4.27455
16.89706,0.9683,-3.23038,-3.97707
16.9071,1.48695,-3.24848,-3.86888
16.91714,1.67489,-3.18623,-3.64143
16.92717,1.45089,-3.37463,-3.3046
16.93721,1.13844,-3.93038,-3.21556
16.94725,0.89917,-4.47446,-3.45872
16.95729,0.92416,-4.88911,-3.79885
16.96733,1.12468,-5.11566,-3.93158
16.97736,1.32429,-5.21547,-4.11189
16.9874,1.48366,-5.39758,-4.37256
16.99744,1.67594,-5.57984,-4.24776
17.00748,1.89037,-5.7184,-3.95732
17.01751,1.81226,-5.94959,-3.63589
17.02755,1.40704,-6.30857,-3.47488
17.03759,1.18513,-6.52779,-3.4882
17.04763,1.07275,-6.6671,-3.47862
17.05766,1.34345,-6.80357,-3.7966
17.0677,1.76348,-6.84472,-4.4173
17.07774,1.81525,-6.89904,-5.0395
17.08778,1.68118,-6.90742,-5.33039
17.09781,1.63285,-6.90039,-5.03052
17.10785,1.36769,-7.03835,-4.71523
17.11789,0.95888,-7.2486,-4.66555
17.12793,0.75328,-7.47799,-4.91934
17.13796,0.77408,-7.55042,-5.40521
17.148,1.11794,-7.37474,-5.93642
17.15804,1.43712,-7.32207,-6.26159
17.16808,1.47827,-7.30755,-6.16657
17.17812,1.31502,-7.35274,-5.70553
17.18815,1.01604,-7.54144,-5.20125
17.19819,0.92745,-7.60159,-5.08947
17.20823,1.12976,-7.5151,-5.36795
17.21827,1.37801,-7.45165,-5.62937
17.2283,1.40465,-7.44387,-5.45848
17.23834,1.07904,-7.63047,-5.07271
17.24838,0.55755,-7.95638,-4.688
17.25842,0.2704,-8.08941,-4.32453
17.26845,0.38621,-7.99753,-4.24267
17.27849,0.63656,-7.81812,-4.62261
17.28853,0.93509,-7.617,-5.36152
17.29857,1.03684,-7.69571,-5.83991
17.3086,1.04716,-7.8232,-5.92116
17.31864,0.96875,-7.78101,-5.69371
17.32868,0.73233,-7.80166,-5.41
17.33872,0.49096,-7.84834,-5.17192
17.34876,0.37813,-7.89398,-5.21756
17.35879,0.24331,-8.07998,-5.57699
17.36883,0.17343,-8.16363,-5.82165
17.37887,0.14545,-8.12457,-5.93463
17.38891,0.13752,-8.06651,-5.98999
17.39894,0.16685,-8.00905,-5.83632
17.40898,0.23433,-8.06247,-5.64687
17.41902,0.25588,-8.09285,-5.57161
17.42906,0.33938,-8.11156,-5.60438
17.43909,0.39848,-8.12368,-5.60019
17.44913,0.33773,-8.11754,-5.49469
17.45917,0.23643,-8.17246,-5.38486
17.46921,0.04923,-8.20373,-5.20724
17.47924,0.0603,-8.23426,-5.06149
17.48928,0.19004,-8.24877,-5.08394
17.49932,0.26037,-8.17844,-5.17761
17.50936,0.34626,-8.10018,-5.42466
17.51939,0.38158,-7.93603,-5.4076
17.52943,0.45999,-7.88695,-5.37094
17.53947,0.41869,-8.03644,-5.34595
17.54951,0.28446,-8.28783,-5.19751
17.55955,0.2276,-8.28379,-4.99236
17.56958,0.17418,-8.19026,-4.86217
17.57962,0.15517,-8.03883,-4.86128
17.58966,0.19842,-7.91254,-5.13766
17.5997,0.25364,-7.94501,-5.46566
17.60973,0.31843,-8.03674,-5.80519
17.61977,0.25558,-8.10781,-5.88001
17.62981,0.21024,-8.08537,-5.58373
17.63985,0.13348,-8.06711,-5.19317
17.64988,0.00329,-8.10647,-4.92787
17.65992,-0.10549,-8.07579,-5.15382
17.66996,-0.1878,-7.98795,-5.45339
17.68,-0.13946,-7.97224,-5.66468
17.69003,-0.02125,-7.8862,-5.81791
17.70007,0.00703,-7.74449,-5.75042
17.71011,0.04549,-7.53829,-5.68593
17.72015,0.03576,-7.31399,-5.75282
17.73018,0.1227,-7.38566,-5.91368
17.74022,0.19423,-7.5552,-6.05778
17.75026,0.17253,-7.6788,-5.90081
17.7603,-0.03921,-7.73477,-5.37229
17.77034,-0.09936,-7.65307,-4.72017
17.78037,0.01841,-7.47649,-4.34742
17.79041,0.1025,-7.3686,-4.45591
17.80045,0.21982,-7.41724,-4.80441
17.81049,0.37724,-7.54413,-5.26186
17.82052,0.31319,-7.69033,-5.53031
17.83056,0.01003,-7.80151,-5.21128
17.8406,-0.19797,-7.74913,-4.60465
17.85064,-0.19962,-7.47799,-4.39306
17.86067,-0.07048,-7.14579,-4.62949
17.87071,0.11791,-6.95336,-5.2035
17.88075,0.17104,-6.83604,-5.81746
17.89079,0.14799,-6.75988,-6.25725
17.90082,0.10325,-6.75419,-6.36349
17.91086,-0.12599,-6.52076,-6.20637
17.9209,-0.38532,-6.02217,-6.12287
17.93094,-0.54333,-5.53165,-6.43502
17.94098,-0.3705,-5.06568,-7.1627
17.95101,-0.05177,-4.84212,-7.81542
17.96105,0.56698,-5.04952,-7.90221
17.97109,0.92745,-5.32994,-7.30501
17.98113,0.62608,-5.44412,-6.73624
17.99116,0.09517,-5.43903,-6.36513
18.0012,-0.25798,-5.29433,-5.67396
18.01124,-0.3491,-5.28041,-5.02558
18.02128,-0.03277,-5.89153,-4.88312
18.03131,0.15892,-6.4428,-5.49739
18.04135,0.10699,-6.40853,-6.56146
18.05139,0.12824,-6.24228,-7.48697
18.06143,0.3497,-6.00062,-7.49864
18.07146,0.40163,-5.83287,-5.97892
18.0815,-0.23598,-5.86774,-4.57083
18.09154,-0.8664,-6.26667,-4.49227
18.10158,-0.88496,-7.11856,-5.05371
18.11161,-0.23852,-7.16151,-5.48317
18.12165,0.52253,-6.68566,-6.42469
18.13169,0.85204,-6.67698,-7.60668
18.14173,0.88152,-6.70451,-8.53353
18.15177,1.18244,-6.82722,-8.14672
18.1618,1.97462,-6.99825,-6.14113
18.17184,2.48563,-6.95201,-4.23145
18.18188,2.727,-7.3719,-3.29248
18.19192,2.8497,-8.26479,-3.47878
18.20195,2.32851,-8.82398,-4.01552
18.21199,1.83201,-9.13178,-4.59836
18.22203,1.84024,-9.21573,-4.63981
18.23207,1.96399,-8.98604,-4.21873
18.2421,2.22616,-8.68931,-3.50571
18.25214,2.15433,-8.54191,-2.89354
18.26218,1.28374,-8.70831,-2.27748
18.27222,0.23673,-9.18131,-1.70826
18.28225,-0.67352,-9.55271,-1.17436
18.29229,-1.0527,-9.704,-1.28284
18.30233,-0.86251,-9.54733,-2.17169
18.31237,-0.52747,-9.05517,-3.21362
18.32241,0.09577,-8.80303,-3.7348
18.33244,0.49979,-8.47757,-4.05653
18.34248,0.06524,-8.3206,-4.14526
18.35252,-0.75298,-8.67778,-4.20437
18.36256,-1.74118,-8.88623,-4.09319
18.37259,-2.51017,-9.07747,-3.4264
18.38263,-2.15733,-9.00414,-2.89983
18.39267,-1.24124,-8.37611,-3.17307
18.40271,-0.82989,-7.73911,-4.05802
18.41274,-0.39759,-7.63421,-4.83329
18.42278,-0.14455,-7.73372,-5.06314
18.43282,-0.2704,-7.65232,-4.74037
18.44286,-0.55201,-7.65082,-3.94579
18.45289,-0.6611,-7.888,-3.32764
18.46293,-0.55082,-8.13624,-3.27632
18.47297,-0.39415,-8.26823,-3.82788
18.48301,-0.22296,-8.18937,-4.53252
18.49304,-0.14186,-8.23276,-4.99984
18.50308,-0.44831,-8.23141,-5.31438
18.51312,-1.71081,-8.19026,-5.64014
18.52316,-3.55374,-9.1029,-5.65525
18.5332,-4.46608,-10.09051,-5.28625
18.54323,-4.13329,-10.10398,-4.32737
18.55327,-3.36236,-9.96601,-2.93394
18.56331,-2.77817,-9.81084,-2.65741
18.57335,-2.57586,-9.43405,-3.69934
18.58338,-2.8702,-9.28112,-5.48542
18.59342,-3.68153,-9.55541,-6.69134
18.60346,-4.33425,-9.71268,-6.97341
18.6135,-4.57188,-9.8255,-7.24037
18.62353,-4.45112,-9.69891,-7.28645
18.63357,-4.14122,-9.46308,-6.87495
18.64361,-3.54327,-9.37225,-6.42379
18.65365,-2.89848,-9.17847,-6.43352
18.66368,-2.42697,-8.77265,-6.1335
18.67372,-2.21299,-8.50271,-5.1604
18.68376,-2.30292,-8.60686,-4.75249
18.6938,-2.34273,-8.49358,-5.03351
18.70384,-2.20222,-8.1563,-5.97503
18.71387,-1.53274,-7.57047,-6.53722
18.72391,-0.71871,-6.97446,-6.81914
18.73395,-0.30736,-6.54754,-6.72367
18.74399,-0.58,-6.64077,-6.48574
18.75402,-0.95978,-6.85894,-7.06379
18.76406,-1.33896,-6.82737,-8.21047
18.7741,-1.51134,-6.83141,-9.61631
18.78414,-1.27581,-6.47168,-10.53374
18.79417,-0.89992,-6.29825,-10.90334
18.80421,-0.44113,-6.33221,-10.51578
18.81425,-0.11432,-6.29705,-9.43465
18.82429,0.17178,-6.16731,-8.81321
18.83432,0.25019,-6.08786,-9.26721
18.84436,-0.1863,-6.12018,-10.33128
18.8544,-1.20129,-6.5037,-11.40433
18.86444,-2.34826,-7.1844,-11.91669
18.87447,-2.77907,-7.50986,-11.55561
18.88451,-2.27763,-7.30755,-10.52267
18.89455,-1.4434,-7.10794,-9.61556
18.90459,-0.74265,-6.90338,-9.31853
18.91463,-0.3087,-6.4627,-9.38467
18.92466,-0.11806,-6.12975,-9.65207
18.9347,-0.16535,-5.94899,-9.69846
18.94474,-0.71272,-6.10207,-9.74709
18.95478,-1.22164,-6.34119,-9.77149
18.96481,-1.12632,-6.18437,-9.76475
18.97485,-0.76674,-5.92191,-9.63546
18.98489,-0.42647,-5.76015,-9.28816
18.99493,-0.17867,-5.6349,-8.90613
19.00496,-0.08185,-5.62413,-8.71011
19.015,-0.01272,-5.53629,-8.71849
19.02504,-0.04744,-5.4284,-8.5901
19.03508,-0.227,-5.51504,-8.32299
19.04511,-0.28356,-5.60168,-8.06307
19.05515,-0.16535,-5.57879,-7.90012
19.06519,0.07811,-5.44397,-7.86615
19.07523,0.11971,-5.32171,-7.88845
19.08527,-0.07078,-5.43454,-8.09973
19.0953,-0.1034,-5.48601,-8.2389
19.10534,0.10086,-5.34835,-8.19056
19.11538,0.35898,-5.20918,-8.04093
19.12542,0.45774,-5.17911,-8.04467
19.13545,0.18361,-5.32007,-8.0529
19.14549,-0.05417,-5.4715,-8.08342
19.15553,-0.03292,-5.49005,-8.27451
19.16557,0.1444,-5.4094,-8.37776
19.1756,0.3319,-5.25856,-8.28334
19.18564,0.16984,-5.2644,-8.28558
19.19568,-0.06015,-5.49978,-8.25715
19.20572,0.02185,-5.47285,-8.24847
19.21575,0.24675,-5.33458,-8.20852
19.22579,0.45984,-5.22056,-8.25685
19.23583,0.48468,-5.19856,-8.27631
19.24587,0.44412,-5.19347,-8.03823
19.2559,0.41375,-5.26485,-7.82186
19.26594,0.42572,-5.25677,-7.7213
19.27598,0.3491,-5.20739,-7.56852
19.28602,0.11911,-5.39623,-7.7611
19.29606,-0.03008,-5.51863,-8.19909
19.30609,-0.11118,-5.47015,-8.43148
19.31613,-0.0395,-5.48302,-8.54925
19.32617,0.14799,-5.43858,-8.3833
19.33621,0.29075,-5.38411,-8.17395
19.34624,0.17762,-5.46776,-7.93798
19.35628,-0.06584,-5.62607,-7.89907
19.36632,-0.15966,-5.65241,-8.09135
19.37636,-0.07467,-5.58238,-8.14044
19.38639,0.01826,-5.57146,-7.96117
19.39643,0.02484,-5.63296,-7.77741
19.40647,-0.02484,-5.67875,-7.65621
19.41651,-0.04085,-5.65929,-7.7427
19.42654,0.0847,-5.59271,-7.99304
19.43658,0.18869,-5.52148,-8.18054
19.44662,0.11522,-5.51654,-8.08851
19.45666,0.06255,-5.55574,-7.88022
19.46669,0.08844,-5.55215,-7.96117
19.47673,0.11986,-5.54916,-8.12308
19.4874,0.26935,-5.41434,-8.30923
19.49743,0.44353,-5.3066,-8.32569
19.50747,0.55037,-5.183,-8.33062
19.51751,0.40926,-5.16654,-8.26658
19.52755,0.16789,-5.33967,-8.1955
19.53758,0.10819,-5.37603,-8.34708
19.54762,0.04654,-5.34865,-8.54087
19.55766,-0.01272,-5.3283,-8.6513
19.5677,0.01137,-5.31677,-8.56181
19.57774,0.11088,-5.28056,-8.35127
19.58777,0.1426,-5.25782,-8.216
19.59781,0.03307,-5.30809,-8.18637
19.60785,-0.15323,-5.39174,-8.10333
19.61789,-0.22416,-5.47973,-7.79881
19.62792,-0.06479,-5.47748,-7.55745
19.63796,0.11043,-5.37019,-7.58797
19.648,0.21263,-5.29777,-7.71442
19.65804,0.18211,-5.27443,-7.76859
19.66807,0.03127,-5.31124,-7.76589
19.67811,-0.02963,-5.46162,-7.75631
19.68815,0.01287,-5.49544,-7.64334
19.69819,0.13512,-5.39698,-7.68524
19.70822,0.18974,-5.38157,-7.90476
19.71826,0.15817,-5.40731,-8.14403
19.7283,0.1649,-5.38022,-8.16049
19.73834,0.29254,-5.31827,-8.05694
19.74838,0.42048,-5.21801,-8.03584
19.75841,0.47091,-5.14424,-8.14388
19.76845,0.29269,-5.20874,-8.25685
19.77849,0.08888,-5.33458,-8.28319
19.78852,0.06868,-5.3042,-8.1759
19.79856,0.11462,-5.3042,-8.1135
19.8086,0.05507,-5.39129,-8.15181
19.81864,-0.14275,-5.51504,-8.26104
19.82868,-0.30766,-5.6355,-8.22154
19.83871,-0.23762,-5.59271,-8.14058
19.84875,-0.06479,-5.46252,-8.22528
19.85879,0.04025,-5.38501,-8.3197
19.86883,-0.01122,-5.39863,-8.31686
19.87886,-0.27608,-5.46372,-8.30249
19.8889,-0.5182,-5.6976,-8.19535
19.89894,-0.48917,-5.80235,-7.97479
19.90898,-0.2882,-5.67097,-7.91119
19.91902,-0.11477,-5.54258,-7.97075
19.92905,-0.03921,-5.50681,-8.12487
19.93909,-0.08978,-5.44097,-8.27017
19.94913,-0.19378,-5.47045,-8.3417
19.95916,-0.17178,-5.5523,-8.33287
19.9692,-0.09936,-5.52088,-8.10452
19.97924,-0.07946,-5.49499,-7.95159
19.98928,-0.15562,-5.53539,-7.95369
19.99932,-0.23777,-5.58807,-8.05559
20.00935,-0.16879,-5.56816,-8.30399
20.01939,-0.00628,-5.45803,-8.43447
20.02943,0.10041,-5.33832,-8.29172
20.03947,0.0603,-5.3485,-8.11604
20.0495,-0.19049,-5.4926,-8.11156
20.05954,-0.26935,-5.57639,-8.19565
20.06958,-0.20216,-5.54168,-8.216
20.07962,-0.1447,-5.51998,-8.10407
20.08965,-0.07811,-5.48272,-8.10018
20.09969,-0.04714,-5.41479,-8.21166
20.10973,-0.06015,-5.43873,-8.27481
20.11977,-0.11432,-5.48586,-8.25102
20.1298,-0.19962,-5.44965,-8.26419
20.13984,-0.2704,-5.48302,-8.24339
20.15051,-0.38113,-5.56996,-8.19191
20.16054,-0.34297,-5.56023,-8.15046
20.17058,-0.2047,-5.50472,-8.14747
20.18062,-0.1019,-5.45639,-8.11739
20.19066,-0.11402,-5.47659,-8.10168
20.2007,-0.23688,-5.53719,-8.01713
20.21073,-0.34671,-5.54482,-7.93738
20.22077,-0.41719,-5.5939,-7.8446
20.23081,-0.44772,-5.62996,-7.75362
20.24085,-0.4956,-5.61306,-7.72878
20.25088,-0.42557,-5.5954,-7.86645
20.26092,-0.24166,-5.45788,-8.02117
20.27096,-0.12016,-5.36615,-7.97254
20.281,-0.12255,-5.38022,-7.94546
20.29103,-0.23583,-5.43663,-7.95683
20.30107,-0.46014,-5.50966,-7.99125
20.31111,-0.48348,-5.62383,-7.98885
20.32115,-0.32591,-5.54243,-7.87034
20.33118,-0.18615,-5.46417,-7.8657
20.34122,-0.16116,-5.46073,-7.90431
20.35126,-0.1842,-5.47674,-8.00307
20.3613,-0.15862,-5.43648,-8.1774
20.37133,-0.10265,-5.45833,-8.31327
20.38137,-0.13153,-5.45085,-8.2769
20.39141,-0.18061,-5.48961,-8.41696
20.40145,-0.19797,-5.53599,-8.54895
20.41149,-0.13797,-5.55275,-8.67704
20.42152,0.0187,-5.66618,-8.77999
20.43156,0.21353,-5.87343,-8.69724
20.4416,0.44667,-6.09998,-8.56481
20.45164,0.68115,-6.25844,-8.6522
20.46167,0.85772,-6.41526,-9.07073
20.47171,0.94032,-6.57268,-9.76281
20.48175,1.02472,-6.67833,-10.63295
20.49179,1.13979,-6.82542,-11.28522
20.50182,1.48455,-6.95381,-11.85908
20.51186,1.9396,-7.15926,-12.24694
20.5219,2.36038,-7.61536,-12.28989
20.53194,2.61163,-8.12008,-12.69436
20.54198,2.48219,-8.39766,-13.49133
20.55201,2.16122,-8.67689,-14.31044
20.56205,1.99048,-9.01806,-15.04277
20.57209,2.01726,-9.32048,-15.39517
20.58213,1.95382,-9.64669,-15.0715
20.59216,1.77081,-10.00088,-14.24625
20.6022,1.52436,-10.12658,-13.18876
20.61224,1.24259,-10.14468,-12.42725
20.62228,1.04716,-9.94581,-11.6846
20.63231,1.01185,-9.75877,-10.71495
20.64235,1.10163,-9.73856,-9.64773
20.65239,1.1778,-9.65237,-8.64202
20.66243,1.18438,-9.50887,-8.22289
20.67246,0.92895,-9.10305,-8.20867
20.6825,0.23688,-8.46515,-8.34753
20.69254,-0.64569,-8.11455,-7.75781
20.70258,-1.47124,-8.51573,-6.30917
20.71262,-1.82154,-9.30701,-4.58579
20.72265,-1.57553,-9.76026,-3.09645
20.73269,-1.44475,-9.87159,-2.00051
20.74273,-1.43787,-9.74201,-0.9713
20.75277,-1.31352,-9.82341,-1.30005
20.7628,-1.03878,-10.04323,-2.65622
20.77284,-0.60753,-9.37644,-3.31358
20.78288,-0.01796,-8.3812,-3.22993
20.79292,0.49605,-7.47455,-2.30726
20.80295,0.57446,-6.68865,-1.31995
20.81299,0.227,-6.12347,-1.47962
20.82303,-0.4751,-5.65436,-1.99452
20.83307,-1.27536,-5.3057,-2.65562
20.8431,-1.68597,-4.98563,-2.88696
20.85314,-1.98749,-5.00104,-2.59142
20.86318,-2.49551,-4.67767,-2.59082
20.87322,-2.74031,-4.02376,-3.03196
20.88325,-2.33928,-3.63185,-3.60552
20.89329,-1.9001,-3.2624,-3.91183
20.90333,-1.64811,-2.63437,-4.05039
20.91337,-1.22119,-2.28676,-4.0474
20.92341,-1.13919,-2.46438,-3.67405
20.93344,-1.79296,-2.75483,-3.19716
20.94348,-2.33854,-2.8479,-2.89938
20.95352,-2.60399,-2.73867,-2.8494
20.96356,-2.64589,-2.55042,-3.12937
20.97359,-2.42757,-2.28407,-3.41024
20.98363,-2.17364,-2.19054,-3.55973
20.99367,-2.10959,-2.51975,-3.29921
21.00371,-1.9812,-2.81139,-2.96746
21.01374,-1.76542,-2.66639,-3.04438
21.02378,-1.47752,-2.292,-3.16379
21.03382,-1.47423,-2.06455,-3.09944
21.04386,-2.08221,-2.11124,-2.78895
21.05389,-3.11845,-2.49371,-2.64873
21.06393,-3.94699,-2.98437,-2.53351
21.07397,-3.90689,-3.06263,-2.56075
21.08401,-3.10423,-2.61237,-2.69153
21.09404,-2.1045,-2.23559,-2.61148
21.10408,-1.31651,-2.38103,-2.22825
21.11412,-1.00556,-2.67268,-1.93676
21.12416,-1.26115,-2.84311,-1.79595
21.1342,-1.8778,-2.72864,-1.88903
21.14423,-2.56629,-2.42593,-2.14281
21.15427,-3.02058,-2.09388,-2.3544
21.16431,-3.29712,-1.97327,-2.47127
21.17435,-3.27392,-2.01682,-2.28931
21.18438,-2.92123,-2.16062,-1.99631
21.19442,-2.24456,-2.33465,-1.61983
21.20446,-1.58631,-2.26447,-1.23301
21.2145,-1.17256,-1.7768,-1.30289
21.22453,-0.9481,-1.0515,-1.92958
21.23457,-1.02547,-0.58374,-2.96432
21.24461,-1.53962,-0.9707,-4.01328
21.25465,-2.26312,-1.95217,-4.77613
21.26468,-2.84865,-2.98901,-5.32156
21.27472,-3.17411,-3.7143,-6.38354
21.28476,-3.03704,-3.58577,-8.47787
21.2948,-2.36831,-2.79239,-10.42435
21.30484,-1.24409,-1.99168,-11.44039
21.31487,-0.16894,-1.66457,-11.312
21.32491,0.26082,-1.98434,-11.31111
21.33495,0.43799,-2.75333,-12.26998
21.34499,0.33728,-3.51978,-13.76831
21.35502,-0.1028,-4.15918,-15.52146
21.36506,-0.43619,-4.21499,-17.08143
21.3751,-0.79637,-4.09917,-18.19967
21.38514,-1.3436,-4.3148,-18.85224
21.39517,-1.26204,-4.90617,-18.92467
21.40521,-0.73786,-5.78783,-18.25504
21.41525,-0.32187,-6.2782,-17.7141
21.42529,0.07317,-6.12661,-17.59663
21.43532,0.33564,-6.06706,-17.87691
21.44536,0.42856,-6.20577,-18.62794
21.4554,0.27623,-6.38773,-19.30789
21.46544,-0.30661,-6.83515,-19.37208
21.47547,-0.94182,-7.64932,-19.21227
21.48551,-1.14458,-8.00367,-18.93574
21.49555,-0.93359,-7.84984,-18.59921
21.50559,-0.51999,-7.59306,-18.29903
21.51563,-0.33953,-7.39793,-18.24142
21.52566,-0.80011,-7.38955,-18.19369
21.5357,-1.73146,-7.69841,-17.90713
21.54574,-2.51705,-7.96581,-17.60082
21.55578,-2.77757,-8.04916,-17.51269
21.56581,-2.57826,-7.79881,-17.42694
21.57585,-2.29933,-7.39285,-17.22643
21.58589,-2.25519,-7.10913,-16.93958
21.59593,-2.35021,-6.76542,-16.49575
21.60596,-2.57811,-6.5649,-16.07736
21.616,-2.87873,-6.59872,-15.66915
21.62604,-2.9709,-6.72516,-15.3395
21.63608,-3.0351,-6.73235,-15.13689
21.64611,-3.09166,-6.60321,-14.95748
21.65615,-3.20045,-6.36169,-14.82235
21.66619,-3.23412,-6.05,-14.51694
21.67623,-3.01565,-5.83123,-14.00129
21.68627,-2.90716,-5.72349,-13.34019
21.6963,-3.06937,-5.78753,-12.54996
21.70634,-3.137,-5.95528,-11.7678
21.71638,-2.87364,-6.14502,-11.11463
21.72642,-2.53067,-6.11719,-10.47239
21.73645,-2.48503,-5.84859,-9.81144
21.74649,-2.62868,-5.67156,-9.50857
21.75653,-2.77922,-5.4914,-9.7459
21.76657,-2.68689,-5.31483,-10.18957
21.7766,-2.08744,-4.36253,-10.1155
21.78664,-1.3837,-3.27976,-9.42792
21.79668,-0.91399,-2.57242,-7.8229
21.80672,-0.89663,-2.27778,-6.04207
21.81675,-1.29003,-2.49177,-4.62006
21.82679,-1.36844,-2.84641,-3.53893
21.83683,-0.82226,-2.74809,-2.68749
21.84687,0.03187,-2.24606,-2.61552
21.85691,0.79323,-1.74403,-3.25118
21.86694,1.13605,-1.5706,-3.38854
21.87698,1.1368,-2.024,-2.7454
21.88702,0.79787,-2.4159,-1.82603
21.89706,0.58882,-2.55626,-1.14173
21.90709,0.74669,-2.38268,-0.96621
21.91713,1.06183,-2.22855,-1.25486
21.92717,1.4859,-2.11543,-1.67938
21.93721,2.03328,-2.01008,-1.94185
21.94724,2.22795,-1.96878,-2.0457
21.95728,1.70467,-2.19668,-2.0647
21.96732,1.42335,-2.49521,-2.19668
21.97736,1.52735,-2.41575,-2.31833
21.98739,1.73026,-2.23993,-2.26057
21.99743,2.02804,-2.22481,-1.97252
22.00747,2.05243,-2.27853,-1.95202
22.01751,1.82573,-2.48608,-2.17603
22.02755,1.67953,-2.53067,-2.42308
22.03758,1.51927,-2.61073,-2.6013
22.04762,1.24409,-2.97135,-2.38567
22.05766,1.00946,-3.2612,-1.84773
22.0677,0.70794,-3.3839,-1.3635
22.07773,0.50443,-3.44585,-1.2788
22.08777,0.38487,-3.43822,-1.46211
22.09781,0.62953,-3.39977,-1.66636
22.10785,0.83617,-3.37298,-1.76243
22.11788,0.67861,-3.40156,-1.51643
22.12792,0.40462,-3.64966,-1.14967
22.13796,0.03846,-3.86529,-1.02801
22.148,-0.19842,-3.7167,-0.97384
22.15803,-0.1432,-3.45902,-0.75941
22.16807,-0.03307,-3.2018,-0.68639
22.17811,-0.15188,-3.1171,-0.80969
22.18815,-0.54363,-3.10094,-0.92671
22.19819,-0.82405,-3.0984,-1.03594
22.20822,-0.85967,-3.08643,-1.19126
22.21826,-0.63117,-2.87559,-1.35317
22.2283,-0.49844,-2.58544,-1.57494
22.23834,-0.62159,-2.43924,-1.81166
22.24837,-0.94332,-2.27973,-2.19503
22.25841,-1.47124,-2.27329,-2.45989
22.26845,-1.92239,-2.57451,-2.49162
22.27849,-1.93601,-2.75348,-2.63003
22.28852,-1.59469,-3.13236,-2.67806
22.29856,-1.37218,-3.08538,-2.84656
22.3086,-1.25307,-2.64993,-3.49119
22.31864,-1.32714,-2.52648,-4.21005
22.32867,-1.37008,-2.43011,-5.04533
22.33871,-1.08293,-2.34288,-6.04401
22.34875,-1.10896,-2.24277,-7.59441
22.35879,-1.35751,-2.11887,-9.49151
22.36882,-1.19815,-2.0017,-11.25589
22.37886,-0.39474,-1.95382,-12.96191
22.3889,0.25588,-1.90683,-13.96074
22.39894,0.13497,-2.24905,-14.10364
22.40898,-0.63312,-3.02073,-14.00324
22.41901,-1.18573,-3.51963,-14.26525
22.42905,-1.07574,-3.48401,-15.05713
22.43909,-0.0401,-3.38046,-16.05507
22.44913,0.92192,-3.32151,-16.97384
22.45916,1.24334,-3.60657,-17.42395
22.4692,1.16298,-3.93996,-17.10343
22.47924,0.91952,-3.89118,-16.5978
22.48928,0.64658,-3.96555,-16.5357
22.49931,0.56339,-3.98246,-17.20668
22.50935,0.61561,-4.42478,-17.69659
22.51939,0.21638,-5.34221,-17.10747
22.52943,-0.23014,-5.76509,-16.40627
22.53946,-0.52732,-5.87567,-15.99431
22.5495,-0.8676,-5.86729,-16.0639
22.55954,-1.08188,-5.60333,-16.62908
22.56958,-1.39612,-5.35314,-16.91668
22.57962,-1.48455,-5.20065,-16.85578
22.58965,-1.49293,-5.30151,-16.47181
22.59969,-1.64527,-5.68413,-15.64491
22.60973,-1.62776,-5.9255,-15.01194
22.61977,-1.64257,-5.80369,-14.9072
22.6298,-2.02325,-5.58642,-15.05085
22.63984,-2.39854,-5.44142,-14.97259
22.64988,-2.40468,-5.38351,-14.72569
22.65992,-2.42278,-5.38246,-14.39244
22.66995,-2.51271,-5.23118,-14.25717
22.67999,-2.6414,-5.03695,-14.38227
22.69003,-2.98946,-5.07511,-14.65266
22.70007,-3.3652,-5.26829,-14.75666
22.7101,-3.37942,-5.24375,-14.38406
22.72014,-3.07176,-5.11327,-13.79105
22.73018,-2.65382,-4.98578,-13.36204
22.74022,-2.24561,-4.94956,-13.30757
22.75026,-2.1262,-4.88118,-13.68002
22.76029,-2.2703,-4.88522,-14.18475
22.77033,-2.48533,-4.88163,-14.25687
22.78037,-2.9305,-4.9533,-13.96373
22.79041,-3.43628,-5.29463,-13.80437
22.80044,-3.70188,-5.77661,-13.78566
22.81048,-3.66043,-5.94555,-13.76756
22.82052,-3.37433,-5.77033,-13.63483
22.83056,-3.29517,-5.63146,-13.41681
22.84059,-3.50332,-5.78215,-13.27824
22.85063,-3.53414,-6.08501,-12.99618
22.86067,-3.4291,-6.10207,-12.50911
22.87071,-3.45543,-6.05509,-12.09985
22.88074,-3.68094,-6.27116,-11.88841
22.89078,-3.86723,-6.31052,-11.75703
22.90082,-3.52187,-6.2761,-11.52778
22.91086,-2.70006,-6.24198,-11.21923
22.9209,-1.76288,-6.23375,-10.79635
22.93093,-1.19635,-6.05568,-10.54751
22.94097,-1.12991,-5.6554,-10.49947
22.95101,-1.35931,-5.67665,-10.25511
22.96105,-1.69165,-6.07349,-9.89299
22.97108,-1.80164,-6.02381,-9.36881
22.98112,-1.48934,-5.85128,-8.59548
22.99116,-0.9707,-5.62802,-7.87513
23.0012,-0.45669,-5.38022,-7.46871
23.01123,-0.07781,-4.96931,-7.42891
23.02127,0.06659,-4.30717,-7.44956
23.03131,-0.22715,-4.11488,-7.50867
23.04135,-0.68654,-4.36044,-7.7629
23.05138,-0.7624,-4.56335,-7.89308
23.06142,-0.3934,-4.17459,-7.7614
23.07146,0.40387,-3.57305,-7.25578
23.0815,0.87882,-3.02358,-6.47691
23.09154,0.59242,-2.478,-6.05284
23.10157,0.03756,-2.22646,-5.82824
23.11161,-0.63386,-2.47216,-5.91338
23.12165,-1.34315,-3.06817,-5.95333
23.13169,-1.44161,-3.20434,-6.2746
23.14172,-0.94346,-2.63706,-6.7084
23.15176,0.03861,-1.87735,-6.98897
23.1618,1.0747,-1.29302,-7.27299
23.17184,1.526,-1.00931,-7.31174
23.18187,0.89154,-1.60007,-6.84083
23.19191,-0.36616,-2.63706,-5.81237
23.20195,-1.05315,-3.37059,-4.73768
23.21199,-1.00856,-3.52217,-3.7574
23.22202,-0.47106,-3.40126,-3.25312
23.23206,0.36796,-3.17336,-3.02762
23.2421,1.30364,-2.82606,-2.98123
23.25214,1.9836,-2.5826,-3.28095
23.26218,2.02789,-2.66086,-3.82519
23.27221,1.72936,-3.0951,-4.20811
23.28225,1.14413,-3.89327,-4.23908
23.29229,0.41943,-4.62171,-3.9021
23.30233,-0.07766,-5.1803,-3.50436
23.31236,-0.20485,-5.49798,-3.08089
23.3224,-0.08036,-5.51834,-2.76979
23.33244,0.18839,-5.53001,-2.65337
23.34248,0.37739,-5.77661,-2.98602
23.35251,0.39115,-6.00181,-3.45319
23.36255,0.17493,-6.15594,-3.8201
23.37259,0.12659,-6.24093,-4.1508
23.38263,0.145,-6.2969,-4.21828
23.39266,0.19393,-6.33805,-4.11907
23.4027,-0.04354,-6.61069,-3.86664
23.41274,-0.48109,-7.0005,-3.58726
23.42278,-0.74729,-7.29693,-3.40007
23.43281,-0.85907,-7.53201,-3.36505
23.44285,-1.00512,-7.6583,-3.39303
23.45289,-1.14952,-7.65516,-3.46291
23.46293,-1.35198,-7.75183,-3.51618
23.47297,-1.65619,-7.86256,-3.72104
23.48363,-2.04495,-7.95833,-4.59133
23.49367,-2.07862,-7.94935,-5.61186
23.50371,-1.91761,-7.75198,-6.29151
23.51374,-1.93452,-7.61476,-6.36334
23.52378,-1.99587,-7.7433,-5.85831
23.53382,-2.06635,-7.91763,-5.53165
23.54386,-2.15598,-7.99738,-5.91742
23.55389,-1.98345,-7.77936,-6.73399
23.56393,-1.55144,-7.45824,-7.29229
23.57397,-0.99165,-7.15462,-7.6592
23.58401,-0.65586,-6.88363,-7.42173
23.59405,-0.70434,-6.95575,-6.60545
23.60408,-0.99359,-7.27179,-5.89931
23.61412,-1.56551,-7.61236,-5.66752
23.62416,-1.98749,-7.8265,-5.76718
23.63419,-1.9197,-7.83428,-6.18303
23.64423,-1.64137,-7.68329,-6.4639
23.65427,-1.49578,-7.54248,-6.26832
23.66431,-1.50565,-7.49909,-5.70838
23.67435,-1.64931,-7.54548,-5.21053
23.68438,-1.82229,-7.68703,-4.9943
23.69442,-1.72233,-7.69033,-5.42346
23.70446,-1.5287,-7.60548,-6.18422
23.7145,-1.51957,-7.5781,-6.5444
23.72453,-1.71739,-7.70349,-6.2336
23.73457,-1.99482,-7.71771,-5.53255
23.74461,-2.28033,-7.77382,-5.09606
23.75465,-2.4379,-7.89383,-5.26679
23.76468,-2.39854,-7.88411,-5.74324
23.77472,-2.27898,-7.80285,-6.10611
23.78476,-2.18231,-7.69511,-6.1935
23.7948,-2.065,-7.50298,-5.91562
23.80484,-1.93586,-7.34466,-5.3048
23.81487,-1.80792,-7.14415,-5.01974
23.82491,-1.56281,-6.98748,-5.2644
23.83495,-1.41931,-6.87689,-5.83048
23.84499,-1.45029,-6.72726,-6.32144
23.85502,-1.64586,-6.61009,-6.64541
23.86506,-1.90578,-6.52764,-7.05407
23.8751,-1.96758,-6.44699,-7.54099
23.88514,-1.69554,-6.15355,-7.5549
23.89517,-1.61369,-6.12093,-7.11991
23.90521,-1.38175,-6.32758,-6.60246
23.91525,-1.60681,-6.54051,-5.86684
23.92529,-2.00978,-6.78487,-5.34954
23.93532,-2.18202,-6.83185,-5.56532
23.94536,-2.1265,-6.84188,-6.09175
23.9554,-1.56117,-6.8329,-6.36888
23.96544,-0.9273,-6.51522,-6.62685
23.97548,-0.58658,-6.02725,-7.19128
23.98551,-0.5155,-5.50651,-7.98451
23.99555,-0.61232,-5.29612,-8.77176
24.00559,-0.744,-5.27996,-9.2919
24.01563,-0.81597,-5.19138,-9.50363
24.02566,-0.85877,-5.34745,-8.97796
24.0357,-1.0747,-5.81626,-7.97898
24.04574,-1.26369,-6.17809,-6.97625
24.05578,-1.51329,-6.35212,-6.34
24.06581,-1.40585,-6.16507,-6.42454
24.07585,-0.75313,-5.69655,-6.90862
24.08589,0.04414,-5.34969,-7.20266
24.09593,0.84171,-5.42047,-6.9387
24.10596,0.85069,-5.28056,-6.61877
24.116,0.0,-5.16175,-6.60126
24.12604,-0.38232,-5.23836,-6.75135
24.13608,-0.36766,-5.51774,-7.02324
24.14612,1.00048,-6.70122,-5.32381
24.15678,1.00048,-6.70122,-5.32381
24.16682,0.96546,-6.62131,-4.77778
24.17686,0.45924,-6.63179,-4.65717
24.18689,0.18884,-6.28702,-5.16594
24.19693,0.32651,-5.50607,-5.9038
24.20697,0.95574,-5.58238,-6.14562
24.21701,1.48321,-6.56131,-5.32381
24.22704,1.41886,-7.06349,-4.83943
24.23708,1.27746,-7.33943,-4.57442
24.24712,1.70273,-7.58797,-4.22876
24.25716,2.39241,-7.01411,-4.39141
24.26719,2.7668,-6.20233,-5.27413
24.27723,2.97629,-6.48948,-5.43978
24.28727,3.18833,-7.06753,-5.01929
24.29731,3.14478,-7.11841,-5.02842
24.30734,3.02522,-7.16839,-4.644
24.31738,2.84671,-7.73282,-3.89582
24.32742,2.91285,-8.18428,-3.572
24.33746,3.04617,-8.35427,-3.75366
24.3475,2.66385,-8.38464,-4.32917
24.35753,2.30098,-8.17485,-4.89135
24.36757,2.05273,-7.77023,-4.93669
24.37761,1.61758,-7.53216,-4.75159
24.38765,1.44445,-7.50208,-4.22008
24.39768,1.85147,-7.743,-3.47369
24.40772,2.90462,-7.99992,-2.59307
24.41776,3.80349,-8.1551,-2.66774
24.4278,3.71984,-8.30728,-3.95672
24.43783,2.74286,-8.18398,-5.58388
24.44787,1.41602,-8.20523,-6.51941
24.45791,-0.32217,-8.78462,-6.48993
24.46795,-2.04644,-9.52728,-6.22477
24.47798,-2.61896,-10.02153,-5.50592
24.48802,-1.33701,-10.31407,-4.61856
24.49806,1.08233,-9.57501,-4.30822
24.5081,3.0957,-8.4005,-4.56006
24.51813,3.31328,-7.92316,-5.66962
24.52817,1.49084,-9.17144,-7.82186
24.53821,-0.69746,-10.81311,-9.84376
24.54825,-1.99931,-11.23344,-10.45413
24.55828,-2.45091,-11.02245,-9.35834
24.56832,-1.51837,-10.71585,-7.33733
24.57836,-0.12704,-10.19376,-5.59226
24.5884,0.76091,-9.27933,-4.61662
24.59844,1.66651,-8.6709,-4.63218
24.60847,1.94738,-9.18191,-5.49589
24.61851,1.29137,-9.52294,-6.39746
24.62855,0.04534,-9.76281,-6.70047
24.63859,-1.26055,-10.29417,-6.1938
24.64862,-2.355,-10.93477,-5.66678
24.65866,-2.90791,-11.48379,-5.41149
24.6687,-2.42218,-11.37171,-5.17462
24.67874,-0.62878,-10.62606,-5.48108
24.68877,2.15673,-9.209,-5.56966
24.69881,4.4197,-8.01953,-5.38291
24.70885,5.31154,-7.75033,-5.39294
24.71889,4.98413,-7.93079,-5.79307
24.72892,3.96824,-8.05424,-5.50053
24.73896,3.38974,-8.34559,-4.7902
24.749,3.29667,-8.56391,-5.18734
24.75904,3.02552,-8.47278,-5.97713
24.76908,2.76919,-8.6525,-6.49726
24.77911,2.52962,-8.7324,-6.32638
24.78915,2.39929,-8.70068,-5.37992
24.79919,2.49281,-8.58576,-4.13
24.80923,2.2932,-8.24802,-3.58621
24.81926,1.33567,-8.44854,-4.00894
24.8293,0.35404,-8.99412,-5.03411
24.83934,-0.07886,-9.00459,-5.92804
24.84938,0.01347,-9.02524,-5.9062
24.85941,0.21069,-9.51052,-4.91156
24.86945,0.0407,-9.82191,-4.29445
24.87949,-0.24615,-9.78076,-4.77239
24.88953,0.03187,-9.56708,-5.33039
24.89956,0.93494,-9.0824,-5.37498
24.9096,1.93616,-8.73435,-5.21696
24.91964,2.29245,-8.66491,-5.4486
24.92968,1.89307,-8.52635,-6.10506
24.93972,1.03175,-8.58755,-6.69658
24.94975,0.62653,-8.76936,-7.27912
24.95979,0.87104,-8.46231,-7.52707
24.96983,1.44041,-8.03285,-7.44193
24.97987,1.98075,-7.71696,-7.29812
24.9899,2.38837,-7.44956,-6.95994
24.99994,2.58289,-7.21178,-6.86028
25.00998,2.45181,-7.07741,-7.01351
25.02002,2.17678,-7.06364,-7.27329
25.03005,2.03148,-7.06334,-7.40242
25.04009,2.10645,-7.02788,-6.99735
25.05013,2.3957,-6.91894,-6.64077
25.06017,2.72535,-6.83814,-6.42708
25.0702,3.02552,-6.73414,-6.00181
25.08024,3.07041,-6.81614,-5.42182
25.09028,3.07565,-6.85295,-5.23956
25.10032,2.83459,-6.89485,-5.51519
25.11036,2.51197,-7.29513,-5.9882
25.12039,2.30696,-7.40721,-6.03234
25.13043,1.92928,-7.21104,-5.47464
25.14047,1.44879,-7.46542,-4.88402
25.15051,1.28539,-7.89683,-5.388
25.16054,1.32025,-7.81647,-6.12616
25.17058,1.62072,-7.55401,-5.89976
25.18062,2.06515,-7.46303,-5.66229
25.19066,2.36472,-7.2483,-5.77167
25.20069,2.16585,-7.00528,-5.97757
25.21073,1.72068,-7.27343,-5.80953
25.22077,1.59199,-7.48532,-5.60887
25.23081,1.47079,-7.45599,-5.78275
25.24084,1.43293,-7.4934,-5.93822
25.25088,1.68821,-7.38267,-5.9038
25.26092,1.86119,-7.2064,-5.97608
25.27096,1.90593,-7.03551,-6.1504
25.28099,1.85521,-6.9366,-6.11793
25.29103,1.82303,-7.09073,-5.99059
25.30107,1.84458,-7.09043,-5.73935
25.31111,1.64811,-7.07831,-5.61934
25.32115,1.53633,-7.20954,-5.94376
25.33118,1.65993,-7.11213,-6.18318
25.34122,1.90549,-7.02638,-5.97249
25.35126,2.11393,-7.01411,-6.03474
25.3613,2.17423,-6.91401,-6.24961
25.37133,2.17932,-6.82048,-6.04042
25.38137,2.10405,-6.9972,-5.67111
25.39141,1.91536,-7.09716,-5.84739
25.40145,1.76393,-7.20879,-6.1326
25.41148,1.6936,-7.33509,-6.5673
25.42152,1.47498,-7.34242,-6.85355
25.43156,1.47782,-7.29229,-6.29825
25.4416,1.79056,-7.20056,-6.01857
25.45163,1.89935,-7.22705,-6.62221
25.46167,1.87271,-7.19203,-7.2685
25.47171,1.8793,-7.19009,-7.70394
25.48175,1.86583,-7.20086,-7.54144
25.49179,1.72816,-7.26506,-6.92882
25.50182,1.53932,-7.31309,-6.86867
25.51186,1.29182,-7.35678,-6.80163
25.5219,1.13216,-7.52064,-6.38878
25.53194,1.22763,-7.44417,-6.25066
25.54197,1.47647,-7.26311,-6.31964
25.55201,1.6315,-7.17602,-6.48455
25.56205,1.66636,-7.01755,-6.34987
25.57209,1.55758,-6.99346,-5.96321
25.58212,1.43892,-7.09432,-5.76868
25.59216,1.42694,-7.03252,-5.85248
25.6022,1.41273,-6.92283,-5.89138
25.61224,1.45089,-6.84218,-5.83497
25.62227,1.39387,-6.88438,-5.7609
25.63231,1.15056,-7.00469,-5.88555
25.64235,0.96127,-7.04404,-5.94854
25.65239,0.86461,-7.09567,-6.25216
25.66243,0.62144,-7.20655,-6.12302
25.67246,0.454,-7.33134,-5.36765
25.6825,0.44442,-7.34676,-4.7263
25.69254,0.61262,-7.30381,-4.15229
25.70258,0.85653,-7.18245,-3.97542
25.71261,1.02607,-7.05287,-4.26826
25.72265,1.1989,-6.91146,-4.68336
25.73269,1.48635,-6.65947,-5.42107
25.74273,1.78428,-6.40823,-6.24438
25.75276,2.06754,-6.20083,-6.95785
25.7628,2.22676,-6.00615,-7.45928
25.77284,2.3939,-5.97623,-7.78983
25.78288,2.5615,-6.14427,-7.99244
25.79291,2.6824,-6.29211,-7.91718
25.80295,2.80795,-6.47452,-7.94022
25.81299,2.96552,-6.7081,-8.32524
25.82303,3.05725,-6.81644,-8.66162
25.83307,3.21137,-6.85849,-8.74347
25.8431,3.32585,-6.8139,-8.74647
25.85314,3.27646,-6.84712,-8.9178
25.86318,3.17441,-7.09013,-9.04889
25.87322,3.2425,-7.21912,-9.47101
25.88325,3.20868,-7.19293,-10.15845
25.89329,3.09226,-7.371,-10.77196
25.90333,3.08388,-7.49565,-10.81775
25.91337,2.89339,-7.54263,-10.0968
25.9234,2.47725,-7.84565,-9.16934
25.93344,2.20835,-7.98167,-8.68093
25.94348,2.00529,-7.92645,-8.72268
25.95352,1.94185,-7.98511,-9.21962
25.96356,1.91656,-7.99349,-10.08976
25.97359,1.87451,-8.40589,-10.55499
25.98363,1.8368,-8.66102,-10.04622
25.99367,1.65514,-8.4662,-8.98723
26.00371,1.4235,-8.32688,-7.8648
26.01374,1.13246,-8.24204,-6.99242
26.02378,0.69896,-8.31431,-6.52495
26.03382,0.28192,-8.57244,-6.3575
26.04386,-0.16774,-8.65654,-6.73758
26.05389,-0.23104,-8.61239,-7.66788
26.06393,0.21293,-8.41696,-8.85675
26.07397,0.78305,-8.09809,-9.25119
26.08401,1.24394,-7.83562,-8.45527
26.09404,1.3412,-7.9257,-7.24141
26.10408,1.20069,-8.15241,-6.35541
26.11412,1.1133,-8.23426,-5.89797
26.12416,1.39776,-8.25581,-5.57505
26.1342,1.53827,-8.3616,-5.47928
26.14423,1.27267,-8.49343,-5.31438
26.15427,1.1368,-8.63873,-5.11192
26.16431,1.40974,-8.56945,-5.43903
26.17435,1.87047,-8.17336,-6.08172
26.18438,2.39046,-7.82949,-6.31156
26.19442,2.72849,-7.661,-6.25964
26.20446,2.62569,-7.85642,-6.14786
26.2145,1.61055,-8.34334,-5.82898
26.22453,0.77901,-8.86797,-5.35553
26.23457,0.61067,-8.82817,-5.02872
26.24461,0.53391,-8.46515,-4.93939
26.25465,0.7244,-8.21241,-5.16968
26.26468,1.2393,-7.9917,-5.33413
26.27472,1.57284,-7.65172,-5.16354
26.28476,1.53199,-7.69556,-4.81399
26.2948,1.23481,-8.10557,-4.15903
26.30484,0.59152,-8.46919,-3.9027
26.31487,0.08215,-8.77684,-3.96435
26.32491,0.2683,-8.74572,-3.91467
26.33495,0.46956,-8.651,-4.05742
26.34499,0.43694,-8.52919,-4.60779
26.35502,0.62982,-8.54476,-5.53809
26.36506,0.94915,-8.77325,-6.07813
26.3751,1.21865,-8.57184,-5.79367
26.38514,1.21072,-8.49208,-5.64328
26.39517,0.17148,-9.16635,-5.57295
26.40521,-0.4332,-10.15351,-5.38695
26.41525,-0.29703,-10.35657,-5.30944
26.42529,-0.0829,-10.07645,-5.32635
26.43532,0.38382,-9.51276,-5.74997
26.44536,1.08846,-8.68766,-6.00361
26.4554,1.53229,-8.1536,-6.15085
26.46544,1.22389,-7.89623,-6.27969
26.47548,0.05162,-8.09958,-6.07529
26.48551,-1.88184,-8.74617,-5.38022
26.49555,-3.0951,-9.21483,-4.67184
26.50559,-2.71113,-8.55284,-4.05862
26.51563,-1.7759,-7.69377,-3.96674
26.52566,-0.80325,-6.82422,-4.26751
26.5357,-0.11762,-5.97338,-4.64146
26.54574,0.11298,-5.4287,-4.71807
26.55578,0.12734,-5.13137,-4.30433
26.56581,0.37828,-5.07616,-4.21394
26.57585,0.41375,-4.79783,-4.50963
26.58589,-0.09906,-4.51292,-4.76296
26.59593,-0.95663,-4.82477,-4.84871
26.60596,-1.67938,-5.39878,-4.66929
26.616,-1.77276,-5.2864,-4.64355
26.62604,-1.6101,-4.85798,-4.8324
26.63608,-1.35198,-4.56305,-4.89016
26.64612,-1.02247,-4.41596,-5.25063
26.65615,-0.79757,-4.47222,-5.55634
26.66619,-0.62848,-4.7694,-5.37932
26.67623,-0.57446,-5.02797,-4.98218
26.68627,-0.68818,-5.11057,-4.85275
26.6963,-1.13994,-5.14888,-4.96857
26.70634,-1.96429,-5.69326,-4.98578
26.71638,-2.50987,-6.42424,-4.78556
26.72642,-2.41246,-6.73878,-4.88282
26.73645,-1.81944,-6.78158,-4.92442
26.74649,-1.18603,-6.62506,-4.67887
26.75653,-0.81059,-6.32997,-4.11653
26.76657,-0.62369,-6.28059,-3.55135
26.7766,-0.68025,-6.47407,-3.096
26.78664,-1.05809,-6.62999,-2.746
26.79668,-1.45627,-6.71723,-2.38268
26.80672,-1.61923,-6.96802,-2.10974
26.81676,-1.50745,-7.32371,-1.94843
26.82679,-1.21206,-7.23932,-1.78353
26.83683,-0.91369,-6.92837,-1.32504
26.84687,-0.74505,-6.43756,-0.45804
26.85691,-0.80101,-5.83841,0.39594
26.86694,-1.32983,-5.35314,1.01993
26.87698,-2.33285,-5.0974,1.21416
26.88702,-3.23891,-5.27413,0.87523
26.89706,-3.49823,-5.8007,0.23568
26.90709,-3.12638,-5.89662,-0.21802
26.91713,-2.43146,-5.41449,-0.43919
26.92717,-1.71081,-4.85574,-0.79473
26.93721,-0.95768,-4.18417,-1.04582
26.94724,-0.74041,-3.56721,-1.50281
26.95728,-1.29511,-3.23861,-2.11558
26.96732,-1.94454,-3.06398,-2.34931
26.97736,-2.32956,-3.23576,-2.73523
26.9874,-2.58544,-3.468,-3.635
26.99743,-2.39974,-3.4677,-4.8306
27.00747,-1.94095,-3.44241,-5.60019
27.01751,-1.47423,-2.93559,-5.83527
27.02755,-1.2589,-2.07218,-6.17539
27.03758,-1.36903,-1.39522,-6.88019
27.04762,-1.33327,-1.63674,-7.75302
27.05766,-1.08891,-2.92811,-8.39751
27.0677,-0.88181,-3.61794,-8.84717
27.07773,-0.8685,-3.29218,-9.37554
27.08777,-0.94855,-2.87768,-9.89658
27.09781,-0.71632,-2.08056,-10.50202
27.10785,0.33264,-1.07081,-11.45775
27.11789,1.43742,-0.42572,-12.3273
27.12792,1.59798,-1.16149,-12.9221
27.13796,1.55877,-3.02418,-13.06875
27.148,1.89561,-3.57514,-13.43955
27.15804,2.45002,-2.38448,-14.30251
27.16807,3.42775,-0.93583,-15.08886
27.17811,4.67288,-0.11717,-15.25077
27.18815,5.17058,-1.20503,-14.17697
27.19819,3.52247,-3.93293,-12.32221
27.20822,1.12468,-5.55964,-11.72545
27.21826,-0.21084,-6.22014,-11.67398
27.2283,0.11193,-5.5948,-11.66515
27.23834,1.69943,-3.87337,-12.30739
27.24837,3.55973,-2.81872,-12.79835
27.25841,4.57532,-3.57215,-12.28106
27.26845,3.18578,-5.84799,-11.23494
27.27849,0.99644,-7.55535,-10.94973
27.28853,-0.16086,-7.59351,-11.56684
27.29856,-0.02349,-7.10135,-12.92704
27.3086,1.17091,-5.97533,-14.67735
27.31864,2.41096,-4.8517,-15.8752
27.32868,3.25821,-5.39309,-15.94538
27.33871,2.88621,-6.89814,-14.865
27.34875,2.05916,-7.41664,-13.89116
27.35879,2.08744,-7.61281,-13.5856
27.36883,2.50733,-7.85223,-13.84148
27.37886,2.5823,-7.70035,-14.74813
27.3889,2.90072,-7.15836,-15.81505
27.39894,3.52097,-6.54395,-16.12674
27.40898,4.00864,-6.38399,-15.5469
27.41901,3.91242,-6.67459,-14.52128
27.42905,3.30909,-6.95546,-13.9552
27.43909,2.38388,-7.17782,-13.88442
27.44913,1.56416,-7.38596,-14.15452
27.45917,1.12767,-7.2272,-14.55585
27.4692,0.99808,-6.85999,-14.52966
27.47924,1.02547,-6.62116,-13.92632
27.48928,0.92147,-6.41631,-13.1913
27.49932,0.60858,-6.28224,-12.68343
27.50935,0.33175,-6.05928,-12.46287
27.51939,0.17792,-5.67007,-12.47843
27.52943,-0.20336,-5.5312,-12.77097
27.53947,-0.44397,-5.84365,-13.13115
27.5495,-0.40806,-6.05105,-13.2145
27.55954,-0.39624,-6.192,-12.97074
27.56958,-0.41046,-6.39551,-12.25233
27.57962,-0.37499,-6.3391,-11.53766
27.58965,-0.33938,-6.48051,-11.41944
27.59969,-0.18256,-6.57029,-11.90786
27.60973,0.14096,-6.5866,-12.19696
27.61977,0.58149,-6.73534,-12.00079
27.62981,0.87628,-6.66561,-11.65093
27.63984,1.16777,-6.57822,-11.45087
27.64988,1.43996,-6.564,-11.31664
27.65992,1.6532,-6.43083,-11.36976
27.66996,1.10956,-6.22118,-11.80282
27.67999,-0.30152,-6.23465,-12.14773
27.69003,-1.35632,-6.25111,-11.6008
27.70007,-1.84668,-6.45267,-10.48271
27.71011,-1.61743,-6.10117,-10.14827
27.72014,-1.03834,-5.24495,-10.571
27.73018,-0.59017,-4.48374,-11.07782
27.74022,0.11477,-3.79675,-11.15952
27.75026,0.77408,-3.25956,-10.44889
27.76029,0.949,-3.06652,-9.47999
27.77033,0.76779,-2.78745,-8.32928
27.78037,0.7205,-2.43041,-7.44836
27.79041,0.7636,-2.12111,-7.13113
27.80045,0.94706,-1.90608,-6.98823
27.81048,1.425,-1.55623,-6.86807
27.82052,2.09493,-1.05749,-6.52644
27.83056,2.87469,-0.69611,-5.91996
27.8406,3.72882,-0.42452,-5.12703
27.85063,4.35924,-0.2704,-4.16636
27.86067,4.53596,-0.2683,-3.18758
27.87071,4.41117,-0.58059,-2.1877
27.88075,3.81561,-0.64569,-1.4262
27.89078,3.49494,-0.60005,-1.33043
27.90082,3.23352,-0.81852,-1.82887
27.91086,3.17875,-1.20159,-2.64215
27.9209,3.00353,-1.48934,-3.10947
27.93093,2.65487,-1.84144,-3.01849
27.94097,2.48144,-2.27853,-2.40722
27.95101,2.08819,-2.19189,-1.98285
27.96105,1.05599,-2.37714,-1.54456
27.97109,0.11387,-3.76982,-0.4739
27.98112,-0.7024,-4.6461,0.56413
27.99116,-1.35512,-4.44738,0.46507
28.0012,-1.35587,-4.58684,0.18316
28.01124,-0.82809,-4.62635,-0.53136
28.02127,-0.72095,-4.2922,-1.42126
28.03131,-0.4522,-4.24178,-1.82139
28.04135,0.03142,-4.3133,-1.6327
28.05139,0.16385,-4.54479,-1.01888
28.06142,-0.36302,-4.87624,-0.30227
28.07146,-1.03983,-5.10848,0.56458
28.0815,-1.43951,-5.34595,1.19127
28.09154,-1.69869,-5.40401,1.47169
28.10157,-1.74522,-5.27113,1.26519
28.11161,-1.65305,-5.12135,0.6813
28.12165,-1.61384,-4.99236,0.02559
28.13169,-1.5058,-4.97216,-0.77168
28.14172,-1.52855,-4.90138,-1.66681
28.15176,-1.30828,-4.79409,-2.3734
28.1618,-0.90172,-4.6678,-2.90716
28.17184,-0.41973,-4.63951,-3.22918
28.18188,-0.17807,-4.63113,-3.7372
28.19191,-0.18869,-4.5213,-4.71942
28.20195,-0.0431,-4.71822,-5.52357
28.21199,-0.15173,-5.05775,-5.76643
28.22203,-0.63012,-5.03306,-6.09354
28.23206,-0.83887,-4.8291,-6.65947
28.2421,-0.93075,-4.57562,-7.40347
28.25214,-0.8251,-4.14182,-8.15615
28.26218,-0.29972,-3.86394,-8.63334
28.27221,0.4148,-3.68722,-8.7517
28.28225,1.03908,-3.68512,-8.59099
28.29229,0.84291,-3.53579,-8.49538
28.30233,0.15951,-3.07999,-9.24042
28.31236,-0.45535,-2.64035,-10.33382
28.3224,-0.82151,-2.18665,-11.33774
28.33244,-0.38457,-1.66771,-11.89843
28.34248,0.98147,-1.74702,-11.11418
28.35252,1.92195,-2.31519,-9.80575
28.36255,1.76946,-2.45002,-9.0236
28.37259,0.91578,-2.30427,-9.27304
28.38263,-0.07781,-2.37131,-10.16159
28.39267,-0.64299,-2.86691,-10.84484
28.4027,-0.16789,-3.37687,-11.18197
28.41274,1.19097,-3.66717,-10.65973
28.42278,2.23798,-3.61225,-9.78316
28.43282,2.11228,-3.27706,-9.79588
28.44285,1.12288,-3.28799,-11.07468
28.45289,0.23418,-4.12177,-12.62702
28.46293,0.12779,-5.06478,-14.08658
28.47297,0.30122,-5.66483,-15.01284
28.483,0.23194,-6.17375,-15.3585
28.49304,-0.13063,-6.86837,-15.02032
28.50308,-0.74415,-7.47335,-14.32975
28.51312,-0.63596,-7.72459,-14.32062
28.52316,0.55949,-7.23767,-15.06925
28.53319,2.03238,-5.99403,-16.26366
28.54323,3.23472,-5.23298,-17.69315
28.55327,3.88414,-5.0151,-18.11109
28.56331,3.69141,-4.99146,-17.17825
28.57334,2.86287,-5.40072,-15.19705
28.58338,1.5257,-6.30603,-13.14596
28.59342,-0.38741,-7.0418,-11.88811
28.60346,-2.00155,-7.61102,-11.44713
28.61349,-2.59636,-7.88695,-11.63357
28.62353,-2.65427,-7.47215,-12.00498
28.63357,-2.13697,-6.41062,-12.34944
28.64361,-1.6303,-5.73441,-12.37054
28.65364,-1.74238,-5.66693,-12.11915
28.66368,-2.19144,-5.66199,-11.7892
28.67372,-2.42518,-5.52028,-11.39445
28.68376,-2.05812,-5.15561,-11.18466
28.6938,-1.55384,-4.65747,-11.3979
28.70383,-1.22119,-4.51516,-11.54963
28.71387,-0.87942,-4.45381,-11.25739
28.72391,-0.77333,-4.38678,-10.88509
28.73395,-1.03444,-4.38498,-10.76463
28.74398,-1.37951,-4.68261,-10.65929
28.75402,-1.72727,-5.00224,-10.90723
28.76406,-2.09328,-5.10025,-11.46748
28.7741,-2.18785,-5.46222,-11.88138
28.78413,-2.00425,-5.83422,-12.1386
28.79417,-1.67355,-6.08067,-12.06259
28.80421,-1.299,-6.40703,-11.52733
28.81425,-1.18573,-6.74776,-11.14441
28.82428,-1.27072,-6.9372,-11.30497
28.83432,-1.45732,-7.17856,-12.12573
28.84436,-1.44206,-7.46796,-13.03957
28.8544,-0.99569,-7.54772,-13.67912
28.86443,-0.53944,-7.26072,-13.92707
28.87447,-0.48453,-6.99586,-14.07312
28.88451,-0.77288,-6.66276,-13.99994
28.89455,-0.99449,-6.381,-14.06279
28.90459,-1.34838,-6.32877,-14.12729
28.91462,-1.6936,-6.14831,-14.43973
28.92466,-1.62237,-5.74833,-14.87772
28.9347,-0.9924,-5.14933,-15.01658
28.94474,-0.4344,-4.21469,-14.71431
28.95477,-0.18465,-3.78149,-13.99022
28.96481,-0.02903,-3.59639,-12.89712
28.97485,0.17882,-3.32839,-12.20639
28.98489,0.11896,-3.25312,-11.63373
28.99492,0.03561,-2.95235,-11.22671
29.00496,0.05133,-2.61567,-10.90155
29.015,0.38876,-2.56913,-10.49708
29.02504,0.89408,-2.55805,-9.75054
29.03507,1.57149,-2.79762,-8.38614
29.04511,2.10839,-3.06159,-6.32758
29.05515,2.07248,-3.47922,-3.86798
29.06519,1.12692,-3.93577,-1.7735
29.07523,-0.74579,-4.38094,-1.25606
29.08526,-0.88226,-4.83703,-1.20997
29.0953,0.37828,-4.9135,-1.1169
29.10534,1.44325,-4.28008,-1.60127
29.11538,2.11498,-3.67615,-2.55386
29.12541,2.48144,-3.62976,-2.73986
29.13545,2.63751,-3.91886,-2.70485
29.14549,2.18321,-3.62437,-3.0541
29.15553,2.04674,-3.18923,-3.52681
29.16556,2.71263,-3.23397,-3.86903
29.1756,2.90776,-3.38585,-3.90659
29.18564,2.71607,-3.68303,-4.3573
29.19568,2.84162,-4.00789,-4.18656
29.20571,3.13955,-4.30717,-2.95998
29.21575,2.86945,-4.38333,-1.27327
29.22579,1.77485,-4.67692,-0.13557
29.23583,0.32426,-5.27488,-0.11283
29.24587,-0.50173,-6.07334,-0.74624
29.2559,-0.30481,-6.86792,-1.47767
29.26594,0.03995,-7.06005,-2.09822
29.27598,0.25019,-6.8353,-1.82124
29.28602,0.46822,-6.6891,-0.73607
29.29605,0.01018,-6.79953,0.14425
29.30609,-0.95589,-6.91416,-0.26441
29.31613,-1.09011,-6.98718,-2.44942
29.32617,-0.26531,-6.77694,-4.71972
29.3362,0.89558,-6.45013,-6.28822
29.34624,1.74253,-5.97608,-7.07038
29.35628,2.12051,-5.76584,-7.20804
29.36632,2.05946,-6.03863,-6.95949
29.37635,1.77545,-6.22148,-6.19919
29.38639,1.66008,-6.28717,-5.50352
29.39643,1.61803,-6.45581,-5.5348
29.40647,1.80897,-6.73249,-5.77422
29.4165,2.19459,-6.98718,-6.2363
29.42654,2.26237,-7.00349,-6.27176
29.43658,2.04495,-6.96877,-5.72708
29.44662,1.78757,-7.11542,-5.03516
29.45666,1.45089,-7.11691,-4.83075
29.46669,1.13769,-7.05871,-5.31857
29.47673,1.16149,-7.22869,-6.19874
29.48677,1.25636,-7.42861,-6.71095
29.49681,1.47588,-7.55326,-6.82392
29.50684,1.45208,-7.50941,-6.36813
29.51688,0.98806,-7.55565,-5.29463
29.52692,0.27713,-7.73312,-4.54719
29.53696,-0.17597,-7.79208,-4.57921
29.54699,-0.24092,-7.78445,-5.29807
29.55703,-0.24002,-7.67701,-6.28672
29.56707,-0.06404,-7.6996,-6.97117
29.57711,0.17463,-7.83921,-7.21927
29.58714,0.00733,-7.86331,-6.54665
29.59718,-0.34028,-7.92166,-5.45115
29.60722,-0.75806,-8.17949,-5.16893
29.61726,-1.14907,-8.35621,-5.74698
29.6273,-1.15326,-8.41951,-6.47766
29.63733,-0.91533,-8.40006,-6.54829
29.64737,-0.89259,-8.22827,-6.17405
29.65741,-0.97145,-8.15899,-5.62622
29.66745,-1.03998,-8.1756,-5.29134
29.67748,-0.89124,-8.10617,-5.37872
29.68752,-0.39115,-7.83907,-6.02621
29.69756,0.07362,-7.51465,-6.47063
29.7076,-0.00539,-7.39509,-6.42095
29.71763,-0.38906,-7.52049,-6.25979
29.72767,-0.64524,-7.76215,-6.18707
29.73771,-0.78724,-7.87004,-6.18108
29.74775,-0.65182,-7.79223,-5.93822
29.75778,-0.39325,-7.64199,-5.68997
29.76782,-0.0428,-7.46707,-5.81417
29.77786,0.17538,-7.21508,-5.96126
29.7879,0.19737,-7.23019,-5.97039
29.79793,0.14769,-7.40078,-5.80639
29.80797,-0.04833,-7.50852,-5.53255
29.81801,-0.40537,-7.62239,-5.49379
29.82805,-0.49201,-7.75886,-5.67935
29.83809,-0.42916,-7.6405,-5.7172
29.84812,-0.46567,-7.46273,-5.54826
29.85816,-0.5583,-7.42696,-5.47853
29.8682,-0.44263,-7.44447,-5.55081
29.87824,-0.52358,-7.3921,-5.77302
29.88827,-0.45146,-7.24964,-5.95588
29.89831,-0.04639,-7.03027,-6.14562
29.90835,0.20036,-6.63463,-6.26937
29.91839,0.77348,-6.49547,-6.41496
29.92842,1.05734,-6.45477,-6.10895
29.93846,0.56219,-6.3584,-4.915
29.9485,0.13827,-6.61144,-3.77207
29.95854,-0.41884,-7.27508,-3.32345
29.96857,-0.67861,-7.54398,-3.44241
29.97861,-0.59765,-7.35723,-4.16112
29.98865,-0.43754,-6.89066,-5.33039
29.99869,-0.04788,-6.65483,-6.48679
30.00872,0.72559,-6.64974,-7.21837
30.01876,0.88346,-6.45177,-7.14041
30.0288,0.16071,-6.06751,-6.24109
30.03884,-0.17687,-5.9861,-5.05775
30.04888,-0.45954,-6.02531,-4.45726
30.05891,-0.91997,-5.9439,-4.70371
30.06895,-1.28105,-6.25006,-5.57699
30.07899,-1.37233,-6.59857,-6.66097
30.08903,-1.0928,-6.34074,-7.73656
30.09906,-0.41629,-5.9246,-8.51947
30.1091,0.32816,-5.50457,-8.95222
30.11914,0.517,-5.29074,-8.94863
30.12918,0.15802,-5.5315,-8.35591
30.13921,0.02574,-5.84275,-7.43055
30.14925,-0.01422,-5.89123,-6.7111
30.15929,-0.35943,-5.93702,-6.43127
30.16933,-0.58703,-6.23181,-6.5444
30.17936,-0.59107,-6.55996,-6.97057
30.1894,-0.26172,-6.88602,-7.0626
30.19944,0.48498,-6.91401,-6.83904
30.20948,0.89872,-6.59213,-6.94468
30.21952,0.83333,-6.08142,-7.1636
30.22955,0.58404,-6.08127,-7.40317
30.23959,0.26516,-6.4199,-7.1859
30.24963,-0.1863,-7.19682,-6.56311
30.25967,-0.56862,-8.07549,-5.66857
30.2697,-0.20755,-8.28513,-5.20619
30.27974,0.64344,-7.95025,-5.17596
30.28978,1.43263,-7.35559,-5.31049
30.29982,1.5272,-6.71574,-6.12736
30.30985,1.11585,-6.48739,-6.50744
30.31989,1.00227,-7.04015,-6.06945
30.32993,1.38145,-7.98945,-5.19661
30.33997,1.67519,-8.1346,-4.83449
30.35,1.77336,-7.52557,-4.74112
30.36004,1.26174,-7.11617,-4.45022
30.37008,0.57476,-7.08729,-3.75426
30.38012,0.9891,-6.81958,-3.43837
30.39015,1.92015,-6.86537,-3.71834
30.40019,2.30592,-7.15387,-4.51068
30.41023,2.33719,-7.24411,-5.19676
30.42027,1.99976,-7.18485,-4.75863
30.43031,1.19725,-7.41514,-3.74588
30.44034,0.33758,-7.83458,-3.10962
30.45038,-0.1863,-8.12891,-3.01131
30.46042,-0.30107,-7.99095,-3.33288
30.47046,-0.00509,-7.81004,-3.78344
30.48049,0.61815,-7.66189,-3.75815
30.49053,1.17106,-7.77098,-3.5922
30.50057,0.79458,-7.83906,-3.47354
30.51061,-0.32486,-7.94202,-3.2214
30.52064,-0.70614,-8.24189,-2.77383
30.53068,-0.8052,-8.45138,-2.39106
30.54072,-0.95529,-8.64082,-2.56793
30.55076,-1.1757,-9.03242,-3.01939
30.56079,-1.59379,-9.67841,-3.57649
30.57083,-1.40854,-9.8487,-4.07583
30.58087,-0.04878,-8.83789,-4.61916
30.59091,1.59095,-7.6598,-5.52686
30.60094,2.28302,-7.17767,-6.5043
30.61098,1.54172,-7.25593,-7.23094
30.62102,0.0217,-7.96192,-7.07531
30.63106,-0.82525,-9.02764,-6.85535
30.6411,-0.8863,-9.25194,-7.01217
30.65113,-0.27069,-8.99277,-7.20505
30.66117,1.26653,-7.96027,-7.23692
30.67121,2.97839,-6.57298,-7.38506
30.68125,3.40261,-5.88734,-7.76829
30.69128,2.35754,-5.9246,-8.28304
30.70132,0.68714,-6.79205,-8.68123
30.71136,-1.10896,-8.09345,-9.47116
30.7214,-2.5178,-9.31255,-10.47493
30.73143,-3.24669,-9.73198,-10.70522
30.74147,-3.82025,-9.97185,-10.55963
30.75151,-4.11922,-10.28699,-9.90197
30.76155,-3.75067,-9.90332,-8.69694
30.77158,-2.79134,-9.12565,-8.02432
30.78162,-2.08415,-8.63589,-8.63768
30.79166,-2.38073,-9.02988,-10.18613
30.8017,-3.17441,-9.62858,-10.90215
30.81173,-3.50137,-9.80291,-9.9295
30.82177,-3.695,-9.81742,-8.40395
30.83181,-4.12386,-9.84466,-7.49071
30.84185,-4.15394,-9.70235,-7.2899
30.85189,-3.21811,-9.12415,-7.38207
30.86192,-2.0228,-8.29815,-7.28062
30.87196,-1.50999,-7.75617,-7.09387
30.882,-1.91147,-7.9278,-6.93226
30.89204,-2.73717,-8.30025,-6.78412
30.90207,-3.33033,-8.43866,-6.67803
30.91211,-3.33961,-8.30159,-6.44534
30.92215,-2.97345,-7.93932,-6.10836
30.93219,-2.75034,-7.73656,-5.74848
30.94222,-2.37624,-7.72699,-6.18826
30.95226,-1.63599,-7.50537,-7.5136
30.9623,-0.84246,-7.06035,-8.45527
30.97234,-0.20859,-6.69538,-8.67898
30.98237,0.11597,-6.69449,-8.18069
30.99241,0.00404,-6.82407,-7.4548
31.00245,-0.28506,-7.0192,-6.89111
31.01249,-0.28566,-7.00588,-6.66022
31.02252,-0.09771,-6.85849,-6.81794
31.03256,0.08619,-6.76212,-7.2037
31.0426,0.42318,-6.54994,-7.28585
31.05264,0.72395,-6.30767,-7.1027
31.06268,0.95529,-6.21325,-7.13816
31.07271,0.95603,-6.17031,-7.41634
31.08275,0.7841,-6.23046,-7.74509
31.09279,0.58882,-6.28583,-7.86376
31.10283,0.52268,-6.2782,-7.8262
31.11286,0.64823,-6.21774,-7.54817
31.1229,0.86206,-6.24498,-7.32326
31.13294,1.0135,-6.21999,-7.51091
31.14298,1.23481,-5.98206,-7.77128
31.15301,1.42575,-5.86834,-7.83607
31.16305,1.40674,-5.85457,-7.6812
31.17309,1.0108,-6.06646,-7.53036
31.18313,0.55246,-6.37202,-7.71442
31.19316,0.4136,-6.40344,-7.83906
31.20383,1.24633,-6.03264,-7.48008
31.21387,1.24633,-6.03264,-7.48008
31.2239,1.39133,-5.94136,-7.46303
31.23394,1.21685,-5.96934,-7.49415
31.24398,0.89304,-6.16028,-7.40362
31.25402,0.54962,-6.31097,-7.44746
31.26405,0.21278,-6.47841,-7.54982
31.27409,0.32801,-6.53078,-7.32626
31.28413,0.56309,-6.33985,-7.19697
31.29417,0.6382,-6.34254,-7.27523
31.3042,0.69222,-6.37082,-7.54578
31.31424,0.83992,-6.17794,-7.51345
31.32428,0.96352,-6.12392,-7.28885
31.33432,0.90306,-6.17614,-7.16495
31.34436,0.61112,-6.30977,-7.204
31.35439,0.40417,-6.44893,-7.39958
31.36443,0.37798,-6.44579,-7.5552
31.37447,0.53196,-6.42768,-7.68509
31.38451,0.70599,-6.30124,-7.68374
31.39454,0.8248,-6.16806,-7.57076
31.40458,0.67337,-6.17225,-7.5965
31.41462,0.44502,-6.30438,-7.77278
31.42466,0.29254,-6.37082,-7.9691
31.43469,0.37439,-6.27595,-8.00651
31.44473,0.65272,-6.10417,-7.96237
31.45477,0.74041,-6.06077,-7.94172
31.46481,0.65077,-6.08621,-7.93184
31.47484,0.4742,-6.16327,-7.84909
31.48488,0.34955,-6.22822,-7.70873
31.49492,0.34731,-6.24348,-7.65516
31.50496,0.38666,-6.20966,-7.65366
31.51499,0.47734,-6.12751,-7.79732
31.52503,0.53525,-6.11599,-7.93753
31.53507,0.57865,-6.13933,-7.92316
31.54511,0.66364,-6.05957,-7.79657
31.55515,0.68564,-5.99688,-7.64499
31.56518,0.69507,-5.98939,-7.53889
31.57522,0.75821,-5.9252,-7.62434
31.58526,0.77003,-5.96366,-7.8021
31.5953,0.62219,-6.01453,-7.89279
31.60533,0.48183,-6.05164,-7.75317
31.61537,0.41001,-6.08367,-7.50148
31.62541,0.39504,-6.07304,-7.40227
31.63545,0.38936,-6.04521,-7.42771
31.64548,0.37275,-6.01603,-7.3719
31.65552,0.36856,-6.01034,-7.35618
31.66556,0.28895,-6.01827,-7.40811
31.6756,0.24705,-6.00541,-7.51974
31.68563,0.28267,-5.94286,-7.67446
31.69567,0.39878,-5.90275,-7.79118
31.70571,0.50248,-5.83676,-7.78654
31.71575,0.50742,-5.85023,-7.68658
31.72578,0.4344,-5.90455,-7.54159
31.73582,0.29075,-5.96051,-7.54248
31.74586,0.08155,-6.02755,-7.76694
31.7559,0.09741,-6.05404,-8.01983
31.76594,0.32217,-5.87447,-8.06307
31.7766,0.55516,-5.75267,-7.88186
31.78664,0.52972,-5.79427,-7.76006
31.79668,0.31065,-5.8637,-7.84221
31.80671,0.15607,-5.97683,-7.99304
31.81675,0.15742,-5.96919,-7.89398
31.82679,0.24765,-5.91173,-7.72564
31.83683,0.2689,-5.89677,-7.61206
31.84686,0.06779,-5.93178,-7.63107
31.8569,-0.18151,-6.07289,-7.75362
31.86694,-0.2267,-6.11644,-7.82051
31.87698,-0.09427,-6.03728,-7.84101
31.88701,0.17283,-5.90051,-7.76709
31.89705,0.36272,-5.8004,-7.71801
31.90709,0.36527,-5.80983,-7.69676
31.91713,0.27773,-5.87881,-7.6191
31.92716,0.20426,-5.89437,-7.535
31.9372,0.15263,-5.95019,-7.5344
31.94724,0.16789,-6.00167,-7.72384
31.95728,0.26665,-5.94031,-7.83413
31.96732,0.45445,-5.82315,-7.85283
31.97735,0.62204,-5.75566,-7.82081
31.98739,0.659,-5.71077,-7.79492
31.99743,0.66409,-5.71855,-7.80495
32.00747,0.66274,-5.74204,-7.85403
32.0175,0.71691,-5.76419,-7.83577
32.02754,0.81702,-5.74384,-7.71816
32.03758,0.85264,-5.77706,-7.69541
32.04762,0.86625,-5.77047,-7.72923
32.05765,0.90725,-5.67979,-7.74539
32.06769,0.95559,-5.61994,-7.86899
32.07773,0.93643,-5.6165,-7.96686
32.08777,0.92057,-5.6346,-7.87273
32.0978,0.92626,-5.60647,-7.76874
32.10784,0.93987,-5.52133,-7.7234
32.11788,0.89753,-5.52657,-7.99723
32.12792,0.76944,-5.65585,-8.24189
32.13795,0.57895,-5.74339,-8.3601
32.14799,0.43081,-5.74683,-8.33886
32.15803,0.33384,-5.68952,-8.29815
32.16807,0.25004,-5.66079,-8.257
32.17811,0.21428,-5.72738,-8.2169
32.18814,0.24989,-5.70718,-8.15271
32.19818,0.24989,-5.67815,-8.04197
32.20822,0.19842,-5.68713,-8.02222
32.21826,0.04369,-5.70359,-8.12622
32.22829,-0.1239,-5.7817,-8.15555
32.23833,-0.12989,-5.8212,-8.16019
32.24837,-0.07976,-5.72558,-8.15271
32.25841,-0.0193,-5.61545,-8.0707
32.26844,-0.03606,-5.60004,-8.02417
32.27848,-0.17538,-5.70912,-7.99005
32.28852,-0.34626,-5.80295,-7.92331
32.29856,-0.4561,-5.85397,-7.86121
32.30859,-0.51625,-5.92026,-7.7195
32.31863,-0.40896,-5.93523,-7.66025
32.32867,-0.21817,-5.88225,-7.6375
32.33871,-0.08874,-5.79502,-7.7617
32.34874,-0.01242,-5.70434,-7.85777
32.35878,0.09038,-5.69551,-7.93349
32.36882,0.1453,-5.66139,-7.94561
32.37886,0.167,-5.64762,-7.93094
32.38889,0.1845,-5.66079,-8.00591
32.39893,0.25379,-5.63565,-8.06472
32.40897,0.35434,-5.59061,-8.04886
32.41901,0.39175,-5.59106,-7.99559
32.42905,0.4323,-5.56846,-7.99828
32.43908,0.48108,-5.54288,-8.06951
32.44912,0.51311,-5.58807,-8.08806
32.45916,0.54648,-5.57191,-8.06427
32.4692,0.5562,-5.56562,-8.04931
32.47923,0.51565,-5.59166,-8.07819
32.48927,0.48857,-5.62772,-8.08507
32.49931,0.52253,-5.58837,-8.08731
32.50935,0.51296,-5.5725,-8.01728
32.51938,0.49964,-5.57595,-7.98197
32.52942,0.51266,-5.58208,-8.01414
32.53946,0.52373,-5.60976,-8.02417
32.5495,0.45595,-5.64224,-7.93738
32.55953,0.37739,-5.70733,-7.88276
32.56957,0.31364,-5.71466,-7.84759
32.57961,0.3117,-5.67815,-7.79672
32.58965,0.35389,-5.67067,-7.84685
32.59968,0.38232,-5.6587,-7.88485
32.60972,0.43739,-5.593,-7.94591
32.61976,0.50488,-5.54168,-8.00307
32.6298,0.52672,-5.52058,-8.00008
32.63983,0.45969,-5.53928,-8.00531
32.64987,0.3723,-5.58373,-8.05634
32.65991,0.31933,-5.57834,-8.08118
32.66995,0.34207,-5.57699,-8.04557
32.67999,0.39938,-5.58088,-8.00696
32.69002,0.3714,-5.60946,-7.99454
32.70006,0.30676,-5.67815,-7.98406
32.7101,0.31544,-5.68354,-8.03225
32.72014,0.41509,-5.61171,-8.04646
32.73017,0.4944,-5.56158,-8.01818
32.74021,0.517,-5.53405,-7.93139
32.75025,0.46657,-5.56203,-7.92541
32.76029,0.33668,-5.60767,-7.96192
32.77032,0.28551,-5.65226,-8.02207
32.78036,0.30526,-5.64583,-8.02372
32.7904,0.41165,-5.60587,-8.02686
32.80044,0.49874,-5.55305,-8.02372
32.81047,0.50667,-5.53659,-8.01384
32.82051,0.4326,-5.57879,-8.02087
32.83055,0.36886,-5.61425,-8.03419
32.84059,0.36512,-5.59435,-8.02581
32.85063,0.37769,-5.59914,-7.97883
32.86066,0.32756,-5.60153,-8.00067
32.8707,0.33863,-5.60737,-8.03704
32.88074,0.3524,-5.60138,-8.0538
32.89078,0.31618,-5.62563,-8.08522
32.90081,0.32666,-5.64328,-8.13669
32.91085,0.35778,-5.61126,-8.08447
32.92089,0.38651,-5.60902,-8.02417
32.93093,0.40252,-5.58956,-7.99648
32.94096,0.35419,-5.58118,-8.01549
32.951,0.29928,-5.62877,-8.09584
32.96104,0.30646,-5.64403,-8.12622
32.97108,0.34267,-5.64553,-8.0719
32.98111,0.43036,-5.60213,-8.03988
32.99115,0.4558,-5.56876,-7.99349
33.00119,0.39893,-5.58612,-7.97628
33.01123,0.35823,-5.62353,-7.98436
33.02126,0.34716,-5.6346,-8.00771
33.0313,0.38352,-5.62398,-7.94965
33.04134,0.38562,-5.55036,-7.8669
33.05138,0.3491,-5.59465,-8.00307
33.06142,0.36811,-5.63146,-8.07115
33.07145,0.42303,-5.67321,-8.15136
33.08149,0.49096,-5.6756,-8.31656
33.09153,0.52777,-5.63864,-8.361
33.10156,0.49934,-5.64418,-8.41293
33.1116,0.4561,-5.64164,-8.38779
33.12164,0.42946,-5.64463,-8.36848
33.13168,0.41674,-5.64957,-8.29112
33.14172,0.45984,-5.65705,-8.23381
33.15175,0.51176,-5.59495,-8.26194
33.16179,0.48572,-5.59211,-8.24952
33.17183,0.44846,-5.69596,-8.26179
33.18187,0.4549,-5.81222,-8.18203
33.1919,0.5375,-5.9677,-8.0324
33.20194,0.73697,-6.14562,-7.96611
33.21198,0.93793,-6.34688,-8.03539
33.22202,1.09385,-6.53423,-8.17066
33.23206,1.19216,-6.74925,-8.39362
33.24209,1.36769,-6.90488,-8.75485
33.25213,1.61504,-7.04075,-9.0022
33.26217,1.85655,-7.29783,-9.15558
33.27221,2.0044,-7.63885,-9.42403
33.28224,2.05153,-7.87588,-9.7643
33.29228,1.91087,-7.89712,-10.26619
33.30232,1.71874,-7.91658,-10.91576
33.31236,1.44445,-8.08492,-11.14441
33.32239,1.20354,-8.30698,-11.06705
33.33243,1.01544,-8.47488,-10.78767
33.34247,0.91578,-8.55748,-10.30943
33.35251,1.01574,-8.41861,-9.65731
33.36254,1.08607,-8.42894,-8.90284
33.37258,1.10358,-8.4023,-8.32928
33.38262,1.01245,-8.28828,-8.2588
33.39266,0.78919,-8.24892,-8.33227
33.40269,0.72095,-8.36085,-8.00786
33.41273,0.75791,-8.53413,-7.35364
33.42277,0.90665,-8.34215,-6.93271
33.43281,1.20997,-8.26089,-6.70287
33.44284,1.64482,-7.83787,-6.84622
33.45288,1.5676,-7.38821,-7.29229
33.46292,1.04522,-7.70993,-7.92795
33.47296,0.38277,-7.99199,-8.28588
33.483,-0.26127,-7.91792,-7.6821
33.49303,-0.37335,-7.91433,-6.68626
33.50307,-0.06434,-7.71202,-5.53644
33.51311,0.43395,-7.35439,-4.94133
33.52315,0.84785,-6.9559,-5.13003
33.53318,1.07111,-6.84517,-5.63954
33.54322,1.23765,-6.9797,-6.10641
33.55326,1.38385,-7.1208,-6.55802
33.5633,1.31322,-7.17886,-6.82557
33.57333,1.135,-6.97266,-6.78352
33.58337,0.98566,-6.97117,-6.52345
33.59341,0.75208,-7.12305,-5.8643
33.60345,0.57506,-7.07247,-5.12389
33.61348,0.26441,-7.04344,-4.77778
33.62352,0.25109,-7.07053,-4.64655
33.63356,0.96307,-7.05033,-4.70565
33.6436,1.68342,-6.96473,-5.6774
33.65364,2.41979,-6.68985,-7.37938
33.66367,2.75962,-6.13873,-7.70095
33.67371,2.2902,-5.61126,-7.87079
33.68375,1.70288,-5.92565,-8.36968
33.69379,1.21566,-6.43008,-8.49687
33.70382,0.77348,-6.97356,-8.16513
33.71386,0.41913,-7.494,-7.56268
33.7239,0.1441,-7.68733,-6.81809
33.73394,-0.0618,-7.68718,-6.2149
33.74397,-0.23284,-7.60099,-5.95707
33.75401,-0.28715,-7.19832,-5.74997
33.76405,-0.05028,-6.67997,-5.58418
33.77409,0.36212,-6.38025,-5.33578
33.78412,0.7443,-6.49786,-5.01002
33.79416,1.00542,-6.69119,-4.94058
33.8042,0.95858,-6.61383,-5.36735
33.81424,0.41824,-6.55338,-6.00226
33.82428,-0.32441,-6.43935,-6.83694
33.83431,-0.69941,-6.01064,-6.8561
33.84435,-0.58254,-5.52537,-6.22897
33.85439,-0.21922,-5.31543,-5.53345
33.86443,-0.13333,-5.12868,-5.01525
33.87446,-0.2665,-5.08573,-4.76192
33.8845,-0.45071,-5.098,-4.76042
33.89454,-0.54603,-5.05296,-5.01091
33.90458,-0.46433,-4.90288,-5.63535
33.91461,-0.2252,-4.47626,-5.94914
33.92465,0.31125,-4.00789,-5.79846
33.93469,0.56518,-3.79661,-5.29223
33.94473,0.31334,-4.25884,-4.85514
33.95476,-0.03472,-4.72585,-4.61437
33.9648,-0.26486,-4.90018,-4.54734
33.97484,-0.33384,-5.06,-4.65223
33.98488,-0.23254,-5.0389,-5.21981
33.99491,0.01915,-4.56529,-5.47629
34.00495,0.1429,-4.17624,-5.15127
34.01499,-0.05941,-3.96734,-4.89075
34.02503,-0.19692,-3.69455,-4.93415
34.03507,-0.17702,-3.56482,-4.94298
34.0451,-0.33983,-3.65819,-4.75099
34.05514,-0.50383,-3.5922,-4.69503
34.06518,-0.56054,-3.46755,-4.82821
34.07522,-0.6192,-3.4077,-4.66061
34.08525,-0.90621,-3.49194,-4.36179
34.09529,-1.02891,-3.67734,-4.12835
34.10533,-0.9906,-3.85212,-3.92185
34.11537,-0.87164,-3.84239,-3.83791
34.1254,-0.73038,-3.8804,-3.88564
34.13544,-0.64284,-3.86933,-4.06311
34.14548,-0.61905,-3.6522,-4.19329
34.15552,-0.81328,-3.34635,-4.01059
34.16555,-1.01813,-3.08044,-3.72313
34.17559,-1.05779,-3.05291,-3.61824
34.18563,-1.02517,-3.18115,-3.8421
34.19567,-1.0325,-3.42999,-4.00266
34.20571,-1.10822,-3.52935,-3.95223
34.21574,-1.14383,-3.38974,-3.92425
34.22578,-1.25711,-2.88247,-3.9241
34.23582,-1.3635,-2.35679,-4.11159
34.24586,-1.33148,-2.42099,-4.49137
34.25589,-1.42141,-2.97001,-4.52474
34.26593,-1.70512,-3.35996,-4.9762
34.27597,-1.93272,-3.54252,-5.69775
34.28601,-2.04076,-3.39408,-6.06047
34.29604,-1.82199,-2.92931,-6.36199
34.30608,-1.18124,-2.4961,-6.77978
34.31612,-0.41554,-2.39839,-7.44986
34.32616,0.18705,-2.81244,-8.30923
34.33619,0.43021,-3.27781,-9.03093
34.34623,0.59122,-3.531,-9.67676
34.35627,0.77557,-3.45109,-9.96586
34.36631,1.18648,-2.75064,-10.0974
34.37634,1.57419,-2.02968,-10.32784
34.38638,1.96594,-2.00125,-10.93013
34.39642,2.3327,-2.57272,-11.94557
34.40646,2.68854,-2.96627,-13.12516
34.4165,2.98422,-3.11291,-14.02972
34.42653,2.98482,-3.13596,-14.24655
34.43657,2.72744,-3.02941,-14.121
34.44661,2.34437,-2.81004,-14.00458
34.45665,1.99527,-2.74196,-13.957
34.46668,1.98958,-3.0366,-14.285
34.47672,2.14431,-3.52337,-14.85961
34.48676,2.20895,-3.71116,-15.47387
34.4968,2.13129,-3.76039,-15.82088
34.50683,1.85162,-4.004,-15.77539
34.51687,1.57389,-4.2123,-15.95272
34.52691,1.29392,-4.15214,-16.37828
34.53695,1.27791,-3.87726,-16.87748
34.54698,1.53932,-3.65206,-17.21985
34.55702,1.87825,-3.68722,-17.29886
34.56706,1.86598,-4.01867,-17.13964
34.5771,1.49338,-4.48075,-16.91219
34.58713,0.94122,-4.82716,-16.6813
34.59717,0.46433,-4.9976,-16.62294
34.60721,0.18585,-4.99969,-16.8676
34.61725,0.15877,-4.88881,-17.38819
34.62728,0.33923,-4.75563,-17.84683
34.63732,0.54214,-4.59477,-18.14191
34.64736,0.66379,-4.39126,-18.125
34.6574,0.60603,-4.24043,-17.55025
