t,ax,ay,az
0.0,1.62776,-4.44409,-9.2497
0.01004,1.93242,-4.41476,-9.71537
0.02007,1.94289,-4.33949,-10.09784
0.03011,1.7153,-4.38872,-10.20214
0.04015,1.60262,-4.38304,-9.619
0.05019,1.64197,-4.30582,-8.62347
0.06022,1.51314,-4.30373,-8.16348
0.07026,1.384,-4.85843,-8.18413
0.0803,1.17825,-4.86816,-8.62915
0.09034,0.81567,-4.7908,-8.33511
0.10038,0.96666,-3.58741,-8.73704
0.11041,1.12991,-3.89537,-9.03093
0.12045,0.73592,-4.77553,-8.02147
0.13049,0.02065,-4.67842,-7.33
0.14052,-0.99599,-4.76401,-7.8847
0.15056,-1.20653,-5.14963,-8.39946
0.1606,-1.3207,-5.00867,-9.02838
0.17064,-0.97639,-5.00358,-8.66731
0.18068,-0.27114,-5.15382,-7.76634
0.19071,0.57177,-5.06598,-6.97162
0.20075,1.28524,-4.87699,-6.60545
0.21079,2.14969,-4.8297,-6.47287
0.22082,2.93709,-5.0974,-5.74893
0.23086,2.93544,-5.42511,-4.48165
0.2409,1.47064,-6.02351,-4.30208
0.25094,0.43859,-6.55847,-6.99421
0.26098,0.53017,-6.73235,-8.80647
0.27101,0.90336,-6.15998,-10.15979
0.28105,0.68923,-5.49963,-10.12179
0.29109,0.9068,-4.73992,-8.98304
0.30112,1.63434,-3.9657,-8.69155
0.31116,1.80388,-3.47848,-8.49553
0.3212,2.35634,-2.72969,-10.38934
0.33124,2.63093,-2.64664,-10.97771
0.34128,2.70036,-2.4587,-11.20023
0.35131,1.59214,-3.67899,-11.19334
0.36135,1.06003,-5.17806,-10.79381
0.37139,1.01948,-5.59585,-10.49932
0.38143,1.02083,-5.6355,-10.16683
0.39146,0.7033,-5.52268,-9.42343
0.4015,0.46896,-5.23896,-8.46171
0.41154,0.48842,-4.77673,-7.93573
0.42158,0.77647,-4.14616,-7.58663
0.43161,1.13844,-3.48087,-7.48263
0.44165,1.46181,-2.98886,-7.82949
0.45169,1.58317,-2.89489,-8.2588
0.46172,1.47887,-3.74558,-8.5265
0.47176,1.00556,-4.58834,-8.25236
0.4818,0.55276,-4.8508,-8.1976
0.49184,0.74041,-4.72047,-8.27421
0.50187,1.05854,-4.49407,-8.35876
0.51191,1.07066,-4.30358,-8.39781
0.52195,1.04657,-4.19464,-8.59563
0.53199,0.99,-4.17968,-8.92424
0.54203,0.81971,-4.25091,-9.16336
0.55206,0.60858,-4.30627,-9.20181
0.5621,0.44742,-4.28487,-8.81156
0.57214,0.4525,-4.2753,-8.27017
0.58217,0.58793,-4.29759,-8.04751
0.59221,0.75387,-4.24941,-8.26463
0.60225,0.90381,-4.17878,-8.53593
0.61229,1.00676,-4.11279,-8.78732
0.62232,0.97534,-4.06401,-8.87815
0.63236,0.92446,-4.16022,-9.02569
0.6424,0.82615,-4.24462,-9.07762
0.65244,0.71272,-4.23804,-9.02704
0.66247,0.5357,-4.25001,-9.07747
0.67251,0.38801,-4.24522,-9.1454
0.68255,0.42183,-4.23489,-9.06819
0.69259,0.53271,-4.21529,-8.88937
0.70262,0.61651,-4.20661,-8.79106
0.71266,0.65601,-4.22113,-8.78837
0.7227,0.66409,-4.2135,-8.76921
0.73274,0.7027,-4.18866,-8.69529
0.74277,0.88331,-4.14092,-8.56855
0.75281,1.11944,-4.09977,-8.42594
0.76285,1.27087,-4.12207,-8.37103
0.77289,1.43742,-4.09349,-8.51887
0.78292,1.59798,-3.98186,-8.7339
0.79296,1.64302,-3.89297,-8.93681
0.803,1.61968,-3.86424,-8.99187
0.81304,1.63748,-3.78688,-9.00085
0.82307,1.60965,-3.76832,-9.04395
0.83311,1.46585,-3.88833,-8.99965
0.84315,1.35557,-4.01807,-8.88802
0.85319,1.37816,-4.06176,-8.8138
0.86322,1.3831,-4.04919,-8.81755
0.87326,1.65993,-4.16531,-8.28154
0.8833,1.78159,-4.09259,-7.97957
0.89334,1.42126,-3.97871,-8.03943
0.90337,1.0952,-3.97467,-8.32524
0.91341,1.12767,-3.93053,-8.8349
0.92345,1.26474,-4.0055,-9.50902
0.93349,1.26728,-4.07897,-10.09141
0.94352,1.17047,-4.03094,-10.45024
0.95356,0.79158,-3.9024,-10.44276
0.9636,0.39265,-3.64188,-10.12658
0.97364,0.391,-3.32749,-9.5599
0.98367,0.76255,-3.34694,-8.73839
0.99371,1.00392,-3.54072,-8.04826
1.00375,1.17166,-3.78643,-7.55086
1.01379,1.28748,-3.95776,-7.37639
1.02382,1.22733,-3.9015,-7.70933
1.03386,1.14563,-3.84643,-8.48086
1.0439,0.89603,-3.86693,-9.22172
1.05394,0.44323,-3.82429,-9.68066
1.06397,0.02589,-3.69994,-9.95344
1.07401,-0.07272,-3.50107,-10.07405
1.08405,0.09831,-3.31432,-9.86366
1.09409,0.246,-3.19581,-9.7236
1.10412,0.34536,-3.16424,-9.51426
1.11416,0.3304,-3.33393,-9.39305
1.1242,0.36197,-3.62991,-9.63561
1.13424,0.47645,-3.94699,-9.80261
1.14427,0.53645,-4.02854,-9.88686
1.15431,0.42467,-3.95313,-9.87863
1.16435,0.3943,-3.80289,-9.46757
1.17439,0.52538,-3.5491,-9.01282
1.18442,0.74101,-3.26704,-8.61688
1.19446,0.79981,-3.1382,-8.12158
1.2045,0.60109,-3.11695,-7.83113
1.21454,0.54438,-3.07356,-7.9501
1.22457,0.49201,-3.08044,-8.29292
1.23461,0.20276,-3.20763,-9.16575
1.24465,-0.27054,-3.47683,-9.15543
1.25469,-0.34581,-3.66807,-9.28666
1.26472,-0.08095,-3.64113,-9.27349
1.27476,0.16804,-3.36056,-9.15438
1.2848,-0.15727,-2.94128,-9.07313
1.29484,-0.55186,-2.61671,-8.87276
1.30487,-0.5556,-2.08236,-9.92247
1.31491,-0.44592,-1.91716,-10.22459
1.32495,-0.2273,-1.90399,-8.9618
1.33499,0.94855,-2.08236,-5.26275
1.34502,1.08697,-1.97417,-4.32572
1.35506,0.56084,-2.17738,-4.78182
1.3651,0.36721,-2.21613,-6.02007
1.37514,0.29523,-2.08774,-8.02162
1.38517,-0.04878,-2.03492,-10.02916
1.39521,-0.58523,-1.73654,-11.23509
1.40525,-0.62728,-1.56132,-11.58988
1.41529,-0.38861,-1.42964,-11.24347
1.42532,-0.23777,-1.39657,-10.89481
1.43536,-0.18839,-1.63793,-11.07992
1.4454,0.21069,-1.64871,-11.08066
1.45544,0.9894,-1.60097,-10.91083
1.46547,1.51583,-1.16119,-11.14501
1.47551,1.84174,-0.50877,-11.10895
1.48555,2.05946,-0.39055,-10.3012
1.49559,1.68223,-0.50248,-9.84526
1.50562,1.2191,-0.97983,-9.50453
1.51566,0.55052,-1.53798,-9.26152
1.5257,-0.26486,-2.18246,-9.44318
1.53574,-1.24154,-3.2835,-10.22339
1.54577,-2.10794,-4.68096,-10.53329
1.55581,-2.23454,-5.71795,-9.99893
1.56585,-1.78458,-5.84844,-9.06774
1.57589,-1.08203,-5.17177,-8.19371
1.58592,0.10699,-5.06015,-7.98287
1.59596,1.42081,-4.75189,-9.67138
1.606,1.48396,-4.68755,-10.10742
1.61604,0.68369,-4.1285,-12.38012
1.62607,0.0208,-2.5808,-13.28213
1.63611,0.1429,-1.42305,-12.28166
1.64615,0.67636,-1.55892,-10.50022
1.65619,1.06018,-1.00826,-9.68529
1.66622,1.78817,-0.353,-8.49014
1.67626,2.43041,-1.22987,-8.85256
1.6863,0.25423,-2.23185,-8.87905
1.69634,-0.60858,-2.69527,-8.99113
1.70637,0.2484,-2.54474,-9.20092
1.71641,0.11582,-2.08146,-8.86274
1.72645,-0.19782,-1.47962,-8.21989
1.73649,-0.25588,-1.27431,-7.18844
1.74652,0.0618,-1.16418,-6.48065
1.75656,-0.29628,-0.9722,-6.98
1.7666,-0.93524,-1.05704,-7.61311
1.77664,-0.81358,-1.45089,-7.78205
1.78667,-0.08799,-0.36182,-7.89084
1.79671,0.39729,0.94107,-7.54607
1.80675,0.31439,1.59424,-7.72773
1.81679,-0.2493,1.84593,-8.07175
1.82682,-0.76629,0.69148,-7.74719
1.83686,-1.87675,-0.75043,-6.97835
1.8469,-2.63018,-0.56204,-7.84879
1.85694,-2.76979,0.40776,-9.57172
1.86697,-2.29769,1.44894,-11.38877
1.87701,-1.1344,1.5703,-14.09257
1.88705,0.47615,1.64631,-19.05021
1.89709,-0.00658,1.21251,-22.08307
1.90712,-1.7973,-0.95544,-17.63344
1.91716,-2.10974,-0.9689,-11.83514
1.9272,-1.7979,0.21802,-9.79303
1.93724,-1.64556,0.44577,-9.34876
1.94727,-1.4265,0.58778,-9.64489
1.95731,-0.83632,0.66185,-9.70295
1.96735,-0.48752,0.36497,-9.66928
1.97739,-0.05357,0.17582,-9.85678
1.98742,0.1839,0.2062,-9.56349
1.99746,0.05836,-0.03412,-9.30147
2.0075,-0.0603,-0.44742,-9.15857
2.01754,0.09547,-0.66185,-9.02824
2.02757,0.37858,-0.84605,-9.11248
2.03761,0.37948,-1.02322,-8.99427
2.04765,0.51909,-1.6517,-8.01683
2.05769,1.58945,-1.95023,-7.80959
2.06772,1.18722,-1.90728,-7.3282
2.07776,0.44098,-2.13368,-7.50193
2.0878,0.79353,-2.37894,-7.98257
2.09784,0.98895,-1.81885,-7.21747
2.10787,0.95214,-1.50131,-7.28256
2.11791,0.80475,-1.51493,-8.63843
2.12795,0.60394,-1.1956,-9.47161
2.13799,0.59661,-0.80101,-9.95
2.14802,0.74116,-0.65481,-9.38602
2.15806,0.70569,-0.11582,-7.19757
2.1681,0.26411,0.34402,-6.05015
2.17814,-0.07452,1.52466,-15.28892
2.18817,-2.46513,-3.35039,-27.22088
2.19821,0.12106,1.40495,-2.46603
2.20825,1.5486,1.08143,-8.1349
2.21829,-0.07138,-1.77081,-12.10793
2.22832,0.54797,0.13722,-8.6519
2.23836,0.81897,-0.4329,-10.01509
2.2484,0.13467,-0.4558,-9.82251
2.25844,-0.49859,-0.29733,-9.47311
2.26847,-0.77856,-0.38921,-9.69128
2.27851,-0.05207,0.11417,-9.23863
2.28855,0.58179,0.47061,-9.04514
2.29859,0.36167,0.32292,-9.18057
2.30862,0.58673,0.44996,-8.71624
2.31866,0.68564,0.58673,-8.59174
2.3287,0.45385,0.14994,-8.89087
2.33874,-0.47106,-1.23062,-11.79174
2.34877,-1.24798,-1.45971,-10.43243
2.35881,-1.25905,0.04729,-13.72566
2.36885,0.0844,0.80834,-9.06624
2.37889,-0.28356,-0.5363,-9.8686
2.38892,-0.4739,-0.53211,-9.8668
2.39896,-0.60573,-0.40686,-9.75413
2.409,-0.90007,-0.29703,-10.01061
2.41903,-0.73188,-0.02394,-9.73123
2.42907,-0.24077,0.06404,-8.99307
2.43911,-0.02828,-0.13273,-9.93639
2.44915,-0.44248,-0.83872,-9.67886
2.45918,-0.55336,-1.28389,-9.89957
2.46922,-0.32486,-1.6113,-9.55496
2.47926,-0.13901,-0.86939,-9.66779
2.4893,-0.19004,-0.09786,-9.68484
2.49934,-0.1872,-0.35524,-9.78106
2.50937,-0.21338,-0.36257,-9.75832
2.51941,-0.23493,-0.32426,-9.72525
2.52945,-0.25932,-0.32816,-9.76595
2.53948,-0.2475,-0.37439,-9.83448
2.54952,-0.23284,-0.34506,-9.72914
2.55956,-0.227,-0.31873,-9.70505
2.5696,-0.21189,-0.33893,-9.82326
2.57964,-0.1863,-0.29673,-9.83314
2.58967,-0.15667,-0.28222,-9.69128
2.59971,-0.17478,-0.31214,-9.76116
2.60975,-0.16625,-0.31963,-9.82116
2.61979,-0.19199,-0.25753,-9.70998
2.62982,-0.23987,-0.24825,-9.74455
2.63986,-0.26217,-0.30032,-9.77253
2.6499,-0.24675,-0.34536,-9.81428
2.65994,-0.21338,-0.32187,-9.73078
2.66997,-0.21338,-0.28012,-9.73752
2.68001,-0.23523,-0.37948,-9.77148
2.69005,-0.23418,-0.34985,-9.76909
2.70009,-0.2252,-0.26291,-9.74425
2.71012,-0.2047,-0.2481,-9.77343
2.72016,-0.1869,-0.31708,-9.80216
2.7302,-0.17777,-0.3503,-9.70475
2.74024,-0.18361,-0.31199,-9.77208
2.75027,-0.17942,-0.24181,-9.79513
2.76031,-0.19049,-0.29913,-9.77328
2.77035,-0.22296,-0.331,-9.71836
2.78039,-0.24795,-0.32441,-9.75473
2.79042,-0.26037,-0.29449,-9.77133
2.80046,-0.25259,-0.31244,-9.78211
2.8105,-0.23059,-0.34761,-9.764
2.82054,-0.21084,-0.3301,-9.73976
2.83057,-0.18765,-0.29718,-9.75113
2.84061,-0.1869,-0.30975,-9.78735
2.85065,-0.1875,-0.32965,-9.77777
2.86069,-0.20246,-0.29538,-9.73048
2.87072,-0.18794,-0.2909,-9.73467
2.88076,-0.20411,-0.27548,-9.8279
2.8908,-0.19603,-0.29075,-9.76625
2.90084,-0.20455,-0.31918,-9.7037
2.91087,-0.21593,-0.32486,-9.75892
2.92091,-0.21234,-0.32816,-9.81593
2.93095,-0.23583,-0.30496,-9.74934
2.94099,-0.25019,-0.28117,-9.72719
2.95102,-0.22685,-0.31244,-9.74305
2.96106,-0.21548,-0.3111,-9.7866
2.9711,-0.18346,-0.29105,-9.79797
2.98114,-0.18151,-0.3319,-9.75802
2.99117,-0.18181,-0.35928,-9.75398
3.00121,-0.19558,-0.31574,-9.7646
3.01125,-0.21308,-0.25783,-9.77627
3.02129,-0.22401,-0.26755,-9.78765
3.03132,-0.2282,-0.31843,-9.75248
3.04136,-0.22685,-0.34731,-9.75712
3.0514,-0.2056,-0.30616,-9.76206
3.06144,-0.22715,-0.31484,-9.75443
3.07147,-0.21518,-0.33489,-9.76789
3.08151,-0.21802,-0.31484,-9.75757
3.09155,-0.21877,-0.28326,-9.75413
3.10159,-0.21249,-0.29,-9.76864
3.11162,-0.20635,-0.33205,-9.78046
3.12166,-0.17807,-0.33908,-9.74919
3.1317,-0.19019,-0.30526,-9.75293
3.14174,-0.19288,-0.30347,-9.78256
3.15177,-0.21458,-0.32367,-9.78286
3.16181,-0.2258,-0.30945,-9.73587
3.17185,-0.23658,-0.31334,-9.74305
3.18189,-0.22221,-0.31334,-9.7842
3.19192,-0.22296,-0.31469,-9.79273
3.20196,-0.19977,-0.31633,-9.73228
3.212,-0.20725,-0.30631,-9.75473
3.22204,-0.2047,-0.29763,-9.77732
3.23207,-0.20231,-0.30107,-9.76954
3.24211,-0.20396,-0.29883,-9.76146
3.25215,-0.21204,-0.30167,-9.74829
3.26219,-0.21009,-0.32127,-9.7637
3.27222,-0.21548,-0.30092,-9.79079
3.28226,-0.21159,-0.30152,-9.76759
3.2923,-0.21308,-0.32741,-9.75428
3.30234,-0.21952,-0.32786,-9.74664
3.31237,-0.23373,-0.3102,-9.76954
3.32241,-0.22745,-0.29763,-9.75802
3.33245,-0.21234,-0.30945,-9.74709
3.34249,-0.21503,-0.31499,-9.77089
3.35252,-0.20979,-0.28865,-9.78301
3.36256,-0.19977,-0.27997,-9.74605
3.3726,-0.19154,-0.32756,-9.76759
3.38263,-0.19498,-0.34072,-9.76999
3.39267,-0.19782,-0.30317,-9.74874
3.40271,-0.22221,-0.30152,-9.75921
3.41275,-0.21608,-0.31618,-9.76924
3.42278,-0.22027,-0.33264,-9.76221
3.43282,-0.20186,-0.30511,-9.73916
3.44286,-0.21563,-0.31918,-9.77358
3.4529,-0.21174,-0.33534,-9.78286
3.46293,-0.20291,-0.30496,-9.75054
3.47297,-0.20381,-0.29823,-9.74006
3.48301,-0.22221,-0.30257,-9.7643
3.49305,-0.19692,-0.28715,-9.77657
3.50308,-0.19737,-0.31544,-9.75667
3.51312,-0.19767,-0.31948,-9.7637
3.52316,-0.21443,-0.3117,-9.77283
3.5332,-0.21668,-0.31603,-9.76146
3.54323,-0.21518,-0.31274,-9.76864
3.55327,-0.23628,-0.29703,-9.78136
3.56331,-0.23613,-0.30646,-9.75517
3.57335,-0.20815,-0.32681,-9.75936
3.58338,-0.21009,-0.32711,-9.77597
3.59342,-0.20815,-0.31484,-9.75667
3.60346,-0.2068,-0.31618,-9.75458
3.6135,-0.20261,-0.30751,-9.78585
3.62353,-0.21877,-0.28386,-9.77582
3.63357,-0.21159,-0.28835,-9.73512
3.64361,-0.21009,-0.31873,-9.75398
3.65365,-0.21069,-0.32426,-9.7875
3.66368,-0.21189,-0.30107,-9.75951
3.67372,-0.21219,-0.309,-9.74201
3.68376,-0.22101,-0.31439,-9.76834
3.6938,-0.22595,-0.3111,-9.76924
3.70383,-0.20366,-0.30855,-9.75697
3.71387,-0.21428,-0.30227,-9.76535
3.72391,-0.2056,-0.32591,-9.77717
3.73395,-0.20036,-0.31394,-9.76251
3.74398,-0.20261,-0.29,-9.7643
3.75402,-0.19932,-0.31095,-9.76266
3.76406,-0.205,-0.31454,-9.74934
3.7741,-0.20635,-0.30736,-9.74844
3.78413,-0.21593,-0.30077,-9.76894
3.79417,-0.2255,-0.30406,-9.78271
3.80421,-0.21308,-0.3081,-9.7456
3.81425,-0.21862,-0.33683,-9.74979
3.82428,-0.21787,-0.30391,-9.77059
3.83432,-0.22131,-0.30526,-9.78331
3.84436,-0.2065,-0.31648,-9.77343
3.8544,-0.19737,-0.32636,-9.76116
3.86443,-0.21563,-0.30077,-9.74425
3.87447,-0.20919,-0.2882,-9.75532
3.88451,-0.19154,-0.30751,-9.76625
3.89455,-0.19692,-0.32711,-9.76999
3.90458,-0.21682,-0.31873,-9.76011
3.91462,-0.21114,-0.30481,-9.75951
3.92466,-0.21114,-0.30436,-9.77178
3.9347,-0.21443,-0.31559,-9.74171
3.94473,-0.21727,-0.30152,-9.7465
3.95477,-0.20575,-0.30167,-9.7854
3.96481,-0.20396,-0.30721,-9.78061
3.97485,-0.20051,-0.3099,-9.73752
3.98488,-0.21308,-0.31933,-9.73976
3.99492,-0.21398,-0.31364,-9.76355
4.00496,-0.20336,-0.2888,-9.78001
4.015,-0.21548,-0.30631,-9.7655
4.02503,-0.21682,-0.31858,-9.74814
4.03507,-0.2053,-0.32651,-9.76266
4.04511,-0.21383,-0.30945,-9.77104
4.05515,-0.21353,-0.29658,-9.75577
4.06518,-0.21802,-0.3316,-9.74231
4.07522,-0.21952,-0.32142,-9.74141
4.08526,-0.20949,-0.30167,-9.77193
4.0953,-0.21697,-0.30242,-9.77567
4.10533,-0.21219,-0.30945,-9.75757
4.11537,-0.2077,-0.31693,-9.75069
4.12541,-0.205,-0.32741,-9.76445
4.13545,-0.21159,-0.29883,-9.77747
4.14548,-0.20979,-0.3102,-9.76086
4.15552,-0.2068,-0.32322,-9.75951
4.16556,-0.20665,-0.32292,-9.76146
4.1756,-0.21099,-0.30481,-9.76445
4.18563,-0.21697,-0.30616,-9.76415
4.19567,-0.21488,-0.31349,-9.76744
4.20571,-0.20455,-0.30556,-9.75802
4.21575,-0.19632,-0.30691,-9.77567
4.22578,-0.2044,-0.30406,-9.78091
4.23582,-0.21668,-0.31439,-9.75667
4.24586,-0.19812,-0.32052,-9.7465
4.2559,-0.21204,-0.31259,-9.77582
4.26593,-0.2071,-0.29898,-9.7875
4.27597,-0.20575,-0.31948,-9.74994
4.28601,-0.21922,-0.32651,-9.75278
4.29605,-0.20919,-0.31394,-9.77089
4.30608,-0.20695,-0.29583,-9.78061
4.31612,-0.21428,-0.31065,-9.77178
4.32616,-0.22221,-0.31514,-9.75652
4.3362,-0.21533,-0.31723,-9.75084
4.34623,-0.2077,-0.30736,-9.76415
4.35627,-0.19752,-0.29509,-9.77014
4.36631,-0.2062,-0.29523,-9.74859
4.37635,-0.2282,-0.30361,-9.76744
4.38638,-0.23014,-0.30496,-9.76281
4.39642,-0.2273,-0.30062,-9.77777
4.40646,-0.23314,-0.30706,-9.75802
4.4165,-0.19438,-0.33938,-9.69652
4.42653,-0.19004,-0.35584,-9.66449
4.43657,-0.21204,-0.32232,-9.64729
4.44661,-0.22116,-0.33564,-9.87144
4.45665,-0.2071,-0.37574,-9.99968
4.46668,-0.18286,-0.2903,-9.67213
4.47672,-0.23658,-0.22805,-9.60763
4.48676,-0.30631,-0.27054,-9.87189
4.4968,-0.29972,-0.22386,-9.94417
4.50683,-0.21159,-0.1465,-9.66449
4.51687,-0.15892,-0.25528,-9.68425
4.52691,-0.18555,-0.38247,-9.81638
4.53695,-0.20007,-0.3301,-9.7462
4.54698,-0.227,-0.24122,-9.70325
4.55702,-0.23688,-0.31753,-9.77822
4.56706,-0.21967,-0.38741,-9.73108
4.5771,-0.21473,-0.37065,-9.71088
4.58713,-0.20635,-0.34282,-9.78929
4.59717,-0.20994,-0.38427,-9.82431
4.60721,-0.18031,-0.4124,-9.75413
4.61725,-0.14335,-0.38487,-9.78031
4.62728,-0.13048,-0.31933,-9.83598
4.63732,-0.15083,-0.28087,-9.80755
4.64736,-0.15353,-0.32127,-9.74979
4.6574,-0.17014,-0.31274,-9.75996
4.66743,-0.17747,-0.24002,-9.79273
4.67747,-0.19363,-0.21907,-9.72779
4.68751,-0.24945,-0.26082,-9.72914
4.69755,-0.28431,-0.31035,-9.74664
4.70758,-0.28341,-0.29748,-9.71447
4.71762,-0.29134,-0.29224,-9.70819
4.72766,-0.2882,-0.32441,-9.77268
4.7377,-0.27937,-0.32337,-9.7848
4.74773,-0.25812,-0.30317,-9.71208
4.75777,-0.20994,-0.32202,-9.74889
4.76781,-0.14784,-0.34851,-9.85034
4.77785,-0.11522,-0.35374,-9.80096
4.78788,-0.11522,-0.34267,-9.73198
4.79792,-0.13452,-0.32576,-9.79483
4.80796,-0.15173,-0.30317,-9.83822
4.818,-0.167,-0.30347,-9.78196
4.82803,-0.17612,-0.3286,-9.71507
4.83807,-0.19498,-0.35539,-9.75832
4.84811,-0.2264,-0.36063,-9.77972
4.85815,-0.25708,-0.31199,-9.76385
4.86818,-0.27234,-0.30197,-9.73812
4.87822,-0.29763,-0.29628,-9.75353
4.88826,-0.27997,-0.2665,-9.7462
4.8983,-0.24002,-0.2701,-9.74126
4.90833,-0.21234,-0.28745,-9.76296
4.91837,-0.18765,-0.30511,-9.76894
4.92841,-0.19049,-0.30332,-9.77418
4.93845,-0.17657,-0.26965,-9.77822
4.94848,-0.1845,-0.287,-9.77882
4.95852,-0.21174,-0.32786,-9.76565
4.96856,-0.20919,-0.34506,-9.77029
4.9786,-0.21084,-0.34536,-9.75622
4.98863,-0.20815,-0.36661,-9.76729
4.9993,-0.21563,-0.37469,-9.78989
5.00934,-0.19842,-0.34851,-9.76206
5.01937,-0.21278,-0.3301,-9.74829
5.02941,-0.21099,-0.32965,-9.76804
5.03945,-0.20156,-0.30406,-9.79199
5.04949,-0.19079,-0.28326,-9.74395
5.05952,-0.19513,-0.2882,-9.72689
5.06956,-0.19962,-0.29224,-9.77957
5.0796,-0.19647,-0.27982,-9.77732
5.08963,-0.21308,-0.29164,-9.73976
5.09967,-0.21368,-0.31394,-9.74994
5.10971,-0.23703,-0.32531,-9.76535
5.11975,-0.22221,-0.31918,-9.76355
5.12978,-0.22012,-0.30795,-9.75697
5.13982,-0.22057,-0.3322,-9.75996
5.14986,-0.20859,-0.35329,-9.76984
5.1599,-0.18824,-0.33938,-9.77074
5.16993,-0.18765,-0.32456,-9.77867
5.17997,-0.17957,-0.32456,-9.77508
5.19001,-0.1878,-0.3289,-9.75562
5.20005,-0.19199,-0.31229,-9.77283
5.21008,-0.19094,-0.31214,-9.77119
5.22012,-0.19917,-0.31035,-9.75577
5.23016,-0.20351,-0.32262,-9.77777
5.2402,-0.20949,-0.32397,-9.77792
5.25023,-0.23777,-0.32352,-9.73991
5.26027,-0.25798,-0.31484,-9.76041
5.27031,-0.2457,-0.30361,-9.78585
5.28035,-0.2276,-0.30436,-9.76924
5.29038,-0.21772,-0.29389,-9.74096
5.30042,-0.2252,-0.31963,-9.76535
5.31046,-0.20665,-0.3099,-9.75652
5.3205,-0.2044,-0.29239,-9.75517
5.33053,-0.205,-0.28581,-9.7426
5.34057,-0.19947,-0.30795,-9.75562
5.35061,-0.2074,-0.32277,-9.76924
5.36065,-0.20845,-0.31289,-9.76505
5.37068,-0.20874,-0.33818,-9.7848
5.38072,-0.20276,-0.3512,-9.78181
5.39076,-0.19857,-0.35105,-9.75233
5.4008,-0.1851,-0.33863,-9.76116
5.41083,-0.18899,-0.33893,-9.77642
5.42087,-0.20066,-0.34701,-9.77029
5.43091,-0.20051,-0.34312,-9.75802
5.44095,-0.18271,-0.31574,-9.76774
5.45098,-0.18076,-0.31065,-9.78196
5.46102,-0.21772,-0.30032,-9.77298
5.47106,-0.22939,-0.29673,-9.7631
5.4811,-0.23523,-0.29015,-9.75218
5.49114,-0.2273,-0.29523,-9.75832
5.50117,-0.22176,-0.3096,-9.7664
5.51121,-0.22984,-0.30137,-9.77672
5.52125,-0.22954,-0.30092,-9.73572
5.53128,-0.23688,-0.30736,-9.74814
5.54132,-0.22745,-0.3096,-9.78226
5.55136,-0.21114,-0.3081,-9.7661
5.5614,-0.20381,-0.31723,-9.76236
5.57143,-0.18256,-0.33474,-9.78331
5.58147,-0.18869,-0.33369,-9.78929
5.59151,-0.1878,-0.31244,-9.74844
5.60155,-0.18555,-0.31993,-9.75128
5.61158,-0.18974,-0.3283,-9.78091
5.62162,-0.20081,-0.33339,-9.76789
5.63166,-0.18869,-0.3316,-9.75817
5.6417,-0.20126,-0.32696,-9.75996
5.65173,-0.21234,-0.32516,-9.76625
5.66177,-0.2053,-0.31663,-9.74006
5.67181,-0.21967,-0.31244,-9.76879
5.68247,-0.21967,-0.31244,-9.76879
5.69251,-0.22625,-0.30391,-9.74485
5.70255,-0.23508,-0.30556,-9.75323
5.71259,-0.21204,-0.32277,-9.75577
5.72262,-0.21308,-0.3108,-9.77493
5.73266,-0.21039,-0.32426,-9.76251
5.7427,-0.20904,-0.31289,-9.76026
5.75274,-0.20785,-0.30556,-9.77014
5.76277,-0.19992,-0.32426,-9.75443
5.77281,-0.19558,-0.32456,-9.76116
5.78285,-0.19632,-0.32726,-9.77433
5.79289,-0.19273,-0.32277,-9.76984
5.80292,-0.20261,-0.31723,-9.76565
5.81296,-0.20845,-0.331,-9.76505
5.823,-0.2068,-0.32591,-9.76445
5.83304,-0.21353,-0.31454,-9.75353
5.84307,-0.208,-0.30795,-9.75338
5.85311,-0.21488,-0.30481,-9.77178
5.86315,-0.21383,-0.30032,-9.7667
5.87319,-0.20306,-0.29149,-9.75966
5.88322,-0.2083,-0.30361,-9.77014
5.89326,-0.20889,-0.28401,-9.76939
5.9033,-0.19647,-0.31274,-9.73901
5.91334,-0.21413,-0.31304,-9.75248
5.92337,-0.21802,-0.30436,-9.76116
5.93341,-0.19842,-0.31394,-9.76819
5.94345,-0.2077,-0.3096,-9.75697
5.95349,-0.20605,-0.33609,-9.75293
5.96352,-0.20321,-0.33773,-9.75817
5.97356,-0.20366,-0.34342,-9.78391
5.9836,-0.21503,-0.31589,-9.77942
5.99364,-0.21159,-0.32097,-9.75712
6.00367,-0.19962,-0.31723,-9.75398
6.01371,-0.19603,-0.31199,-9.7634
6.02375,-0.17957,-0.30257,-9.77223
6.03379,-0.18944,-0.29613,-9.76026
6.04382,-0.19767,-0.30586,-9.76445
6.05386,-0.18495,-0.31155,-9.76011
6.0639,-0.19483,-0.29583,-9.75398
6.07394,-0.22057,-0.31678,-9.76445
6.08397,-0.23119,-0.31678,-9.76744
6.09401,-0.22401,-0.32187,-9.75652
6.10405,-0.2255,-0.32516,-9.76655
6.11409,-0.22655,-0.32965,-9.75353
6.12412,-0.20575,-0.32546,-9.76355
6.13416,-0.21338,-0.31678,-9.75158
6.1442,-0.22356,-0.29987,-9.75787
6.15424,-0.20994,-0.31214,-9.77597
6.16427,-0.20979,-0.31334,-9.77119
6.17431,-0.18031,-0.31229,-9.75802
6.18435,-0.19333,-0.30556,-9.76984
6.19439,-0.19528,-0.29119,-9.75996
6.20442,-0.2065,-0.30751,-9.75966
6.21446,-0.2059,-0.31199,-9.79064
6.2245,-0.2068,-0.31544,-9.75338
6.23454,-0.21578,-0.32561,-9.7438
6.24457,-0.22341,-0.33115,-9.75443
6.25461,-0.2276,-0.32202,-9.75637
6.26465,-0.22266,-0.31155,-9.7652
6.27469,-0.22969,-0.31663,-9.77508
6.28472,-0.22296,-0.31738,-9.76251
6.29476,-0.22176,-0.31918,-9.75577
6.3048,-0.19962,-0.30586,-9.75383
6.31484,-0.20141,-0.31065,-9.76161
6.32487,-0.19513,-0.32127,-9.76999
6.33491,-0.1863,-0.31379,-9.76625
6.34495,-0.20007,-0.30601,-9.75248
6.35499,-0.19932,-0.32232,-9.76954
6.36502,-0.20411,-0.32456,-9.7631
6.37506,-0.20859,-0.32516,-9.76924
6.3851,-0.20575,-0.30332,-9.77747
6.39514,-0.22446,-0.3283,-9.76236
6.40517,-0.21563,-0.33683,-9.75892
6.41521,-0.21892,-0.31514,-9.76056
6.42525,-0.2074,-0.31783,-9.74245
6.43529,-0.20246,-0.33818,-9.75682
6.44532,-0.20276,-0.3096,-9.77104
6.45536,-0.21099,-0.31544,-9.78211
6.4654,-0.20201,-0.31035,-9.7845
6.47544,-0.21174,-0.32696,-9.79962
6.48547,-0.19947,-0.30017,-9.78136
6.49551,-0.16056,-0.36332,-9.70205
6.50555,-0.11357,-0.47345,-9.68619
6.51559,-0.14769,-0.28925,-9.82745
6.52562,-0.22341,-0.23643,-9.84376
6.53566,-0.21338,-0.34791,-9.73048
6.5457,-0.18809,-0.34162,-9.67736
6.55574,-0.19423,-0.22131,-9.77343
6.56577,-0.22446,-0.19228,-9.8086
6.57581,-0.29105,-0.29105,-9.74754
6.58585,-0.29703,-0.33818,-9.67871
6.59588,-0.25543,-0.25917,-9.68963
6.60592,-0.24211,-0.21623,-9.78944
6.61596,-0.26366,-0.27833,-9.80156
6.626,-0.27414,-0.37275,-9.71537
6.63603,-0.26486,-0.35853,-9.71268
6.64607,-0.20605,-0.31035,-9.79618
6.65611,-0.13632,-0.32232,-9.8493
6.66615,-0.15024,-0.36197,-9.75323
6.67618,-0.145,-0.3714,-9.71253
6.68622,-0.16146,-0.33818,-9.78346
6.69626,-0.15368,-0.3111,-9.83239
6.7063,-0.11627,-0.3114,-9.77014
6.71633,-0.14739,-0.33309,-9.74724
6.72637,-0.17597,-0.31918,-9.76011
6.73641,-0.20231,-0.27952,-9.78091
6.74645,-0.23673,-0.27922,-9.76355
6.75648,-0.22446,-0.3301,-9.73004
6.76652,-0.23897,-0.32052,-9.73303
6.77656,-0.25648,-0.27518,-9.75173
6.7866,-0.28132,-0.26097,-9.75428
6.79663,-0.26246,-0.3084,-9.73722
6.80667,-0.23314,-0.30795,-9.6639
6.81671,-0.21907,-0.26905,-9.63771
6.82675,-0.19992,-0.26995,-9.83927
6.83678,-0.16804,-0.33429,-10.02018
6.84682,-0.1839,-0.26815,-9.6205
6.85686,-0.23029,-0.34462,-9.56528
6.8669,-0.21219,-0.43305,-9.93698
6.87693,-0.22491,-0.33624,-9.96556
6.88697,-0.11567,-0.31574,-9.61152
6.89701,-0.14156,-0.42243,-9.75996
6.90705,-0.17059,-0.44936,-9.84301
6.91708,-0.17418,-0.25708,-9.2717
6.92712,-0.25438,-0.20231,-10.00597
6.93716,-0.15652,-0.24675,-10.43767
6.9472,-0.23613,-0.1242,-9.39515
6.95723,-0.30197,-0.33175,-9.00325
6.96727,-0.31828,-0.55815,-10.1972
6.97731,-0.29898,-0.23987,-10.15411
6.98735,-0.09053,-0.17448,-9.32033
6.99738,-0.19513,-0.4329,-9.65237
7.00742,-0.26127,-0.47405,-10.03919
7.01746,-0.25244,-0.17807,-9.67183
7.0275,-0.24361,-0.10295,-9.7465
7.03753,-0.13108,-0.42452,-9.84496
7.04757,-0.07497,-0.5589,-9.72734
7.05761,-0.12794,-0.29119,-9.63681
7.06765,-0.13782,-0.21278,-9.92142
7.07768,-0.19962,-0.34895,-9.86665
7.08772,-0.25992,-0.42347,-9.62005
7.09776,-0.20201,-0.34237,-9.62888
7.1078,-0.19199,-0.19677,-9.91259
7.11783,-0.23508,-0.22625,-9.89673
7.12787,-0.22924,-0.34955,-9.62379
7.13791,-0.23942,-0.32576,-9.66405
7.14795,-0.18914,-0.20007,-9.81114
7.15798,-0.18046,-0.21772,-9.75936
7.16802,-0.23673,-0.30092,-9.72166
7.17806,-0.25334,-0.34566,-9.74201
7.1881,-0.22715,-0.2894,-9.82311
7.19814,-0.23807,-0.27668,-9.78016
7.20817,-0.19034,-0.43455,-9.80366
7.21821,-0.15413,-0.51386,-9.81308
7.22825,-0.15293,-0.42811,-9.77972
7.23828,-0.11118,-0.37424,-9.73752
7.24832,-0.13123,-0.36856,-9.8059
7.25836,-0.14979,-0.32786,-9.77253
7.2684,-0.12914,-0.24032,-9.68395
7.27843,-0.1661,-0.21578,-9.74036
7.28847,-0.17508,-0.28551,-9.83673
7.29851,-0.19064,-0.31559,-9.75113
7.30855,-0.22505,-0.27473,-9.6832
7.31858,-0.25394,-0.27399,-9.7441
7.32862,-0.2885,-0.29494,-9.79408
7.33866,-0.3105,-0.28461,-9.76939
7.3487,-0.28611,-0.29553,-9.73019
7.35873,-0.27444,-0.3313,-9.76311
7.36877,-0.23912,-0.35165,-9.76326
7.37881,-0.1842,-0.33788,-9.72076
7.38885,-0.17119,-0.31708,-9.73931
7.39888,-0.15143,-0.33205,-9.79019
7.40892,-0.1462,-0.32606,-9.82775
7.41896,-0.11956,-0.30511,-9.76565
7.429,-0.11298,-0.30107,-9.77672
7.43903,-0.1221,-0.34058,-9.80411
7.44907,-0.13452,-0.33459,-9.76415
7.45911,-0.16011,-0.32636,-9.71881
7.46915,-0.19333,-0.31843,-9.78525
7.47918,-0.23029,-0.33115,-9.8074
7.48922,-0.25244,-0.3114,-9.76191
7.49926,-0.26695,-0.31155,-9.70385
7.5093,-0.27444,-0.32546,-9.72854
7.51933,-0.25423,-0.32367,-9.80815
7.52937,-0.23897,-0.30242,-9.76804
7.53941,-0.19707,-0.32277,-9.69801
7.54945,-0.15817,-0.33803,-9.79558
7.55948,-0.16131,-0.32606,-9.83553
7.56952,-0.14844,-0.30167,-9.75592
7.57956,-0.13856,-0.31723,-9.73931
7.5896,-0.13767,-0.35704,-9.78271
7.59964,-0.12345,-0.33609,-9.77238
7.60967,-0.1444,-0.31738,-9.73961
7.61971,-0.17328,-0.33624,-9.78331
7.62975,-0.2074,-0.34417,-9.79169
7.63978,-0.23747,-0.31349,-9.75024
7.64982,-0.2487,-0.29613,-9.73946
7.65986,-0.23089,-0.32935,-9.76176
7.6699,-0.25244,-0.33549,-9.77747
7.67993,-0.23942,-0.31798,-9.75143
7.68997,-0.22027,-0.29404,-9.73438
7.70001,-0.20755,-0.32726,-9.79079
7.71005,-0.18016,-0.33878,-9.78346
7.72009,-0.17029,-0.31843,-9.74545
7.73012,-0.15592,-0.31663,-9.77897
7.74016,-0.16281,-0.32426,-9.78735
7.7502,-0.15667,-0.34327,-9.75398
7.76024,-0.14694,-0.33235,-9.75652
7.77027,-0.16475,-0.31798,-9.78241
7.78031,-0.16101,-0.32561,-9.77822
7.79035,-0.17747,-0.32711,-9.75832
7.80039,-0.22012,-0.31873,-9.76355
7.81042,-0.21712,-0.30002,-9.75862
7.82046,-0.2288,-0.30496,-9.75802
7.8305,-0.22535,-0.32367,-9.75158
7.84054,-0.2044,-0.32905,-9.7447
7.85057,-0.21249,-0.32666,-9.73348
7.86061,-0.21264,-0.33788,-9.76535
7.87065,-0.21353,-0.32905,-9.78645
7.88069,-0.19797,-0.30885,-9.78465
7.89072,-0.17852,-0.31798,-9.76056
7.90076,-0.17986,-0.32666,-9.75772
7.9108,-0.17208,-0.32591,-9.75293
7.92084,-0.17672,-0.31469,-9.75323
7.93087,-0.16819,-0.32576,-9.77328
7.94091,-0.17747,-0.32292,-9.77807
7.95095,-0.18555,-0.31618,-9.77852
7.96099,-0.19842,-0.30227,-9.76266
7.97102,-0.21264,-0.31678,-9.79588
7.98106,-0.20066,-0.31963,-9.7854
7.9911,-0.17837,-0.32292,-9.73692
8.00114,-0.17582,-0.32546,-9.7441
8.01117,-0.18076,-0.31648,-9.77104
8.02121,-0.20979,-0.34072,-9.76221
8.03125,-0.20306,-0.3289,-9.77582
8.04129,-0.17163,-0.3316,-9.77597
8.05132,-0.15772,-0.33414,-9.77208
8.06136,-0.15458,-0.31364,-9.75488
8.0714,-0.17747,-0.30317,-9.75323
8.08144,-0.18211,-0.30182,-9.77313
8.09147,-0.18824,-0.30466,-9.76101
8.10151,-0.19288,-0.30601,-9.75772
8.11155,-0.20007,-0.32022,-9.75787
8.12159,-0.2074,-0.3313,-9.75428
8.13162,-0.2065,-0.32875,-9.76685
8.14166,-0.21293,-0.33998,-9.75847
8.1517,-0.20141,-0.3286,-9.74784
8.16174,-0.20815,-0.32322,-9.74186
8.17177,-0.19498,-0.31873,-9.74515
8.18181,-0.19348,-0.30736,-9.75802
8.19185,-0.17642,-0.3316,-9.77268
8.20189,-0.15802,-0.33429,-9.77986
8.21192,-0.17852,-0.32367,-9.78226
8.22196,-0.1842,-0.31065,-9.76864
8.232,-0.18899,-0.3096,-9.77493
8.24204,-0.19154,-0.3117,-9.79034
8.25207,-0.18196,-0.32052,-9.71567
8.26211,-0.17837,-0.3292,-9.76011
8.27215,-0.1839,-0.31229,-9.79363
8.28219,-0.20949,-0.31469,-9.74111
8.29222,-0.22401,-0.32905,-9.75622
8.30226,-0.2068,-0.31813,-9.78181
8.3123,-0.1842,-0.31334,-9.77074
8.32234,-0.15862,-0.32441,-9.75652
8.33237,-0.15892,-0.33594,-9.75488
8.34241,-0.1658,-0.32995,-9.74904
8.35245,-0.16894,-0.31603,-9.75862
8.36249,-0.16296,-0.32711,-9.76879
8.37252,-0.15069,-0.33534,-9.77852
8.38256,-0.16879,-0.3304,-9.76774
8.3926,-0.16909,-0.32651,-9.75293
8.40264,-0.19677,-0.31993,-9.75502
8.41267,-0.20306,-0.31454,-9.76715
8.42271,-0.21308,-0.32367,-9.7453
8.43275,-0.21742,-0.31364,-9.73797
8.44279,-0.20904,-0.32726,-9.74934
8.45282,-0.20815,-0.31574,-9.78555
8.46286,-0.19199,-0.31738,-9.7646
8.4729,-0.19393,-0.32875,-9.75622
8.48294,-0.18061,-0.3087,-9.75503
8.49297,-0.17014,-0.31005,-9.74904
8.50301,-0.167,-0.32591,-9.75098
8.51305,-0.15293,-0.32875,-9.7658
8.52309,-0.1643,-0.32097,-9.77912
8.53312,-0.16131,-0.32142,-9.77553
8.54316,-0.16535,-0.3108,-9.77627
8.5532,-0.20695,-0.32262,-9.76236
8.56324,-0.19258,-0.3099,-9.75532
8.57327,-0.18615,-0.32412,-9.75757
8.58331,-0.20111,-0.32082,-9.77822
8.59335,-0.205,-0.30765,-9.74425
8.60339,-0.21129,-0.31439,-9.74874
8.61342,-0.20665,-0.3313,-9.76715
8.62346,-0.20306,-0.31155,-9.764
8.6335,-0.1857,-0.32965,-9.76206
8.64354,-0.17897,-0.32052,-9.77328
8.65357,-0.1637,-0.32382,-9.77597
8.66361,-0.16251,-0.30451,-9.77493
8.67365,-0.17642,-0.3078,-9.7667
8.68369,-0.17223,-0.32367,-9.76565
8.69372,-0.17223,-0.33354,-9.75996
8.70376,-0.17418,-0.3289,-9.7649
8.7138,-0.19124,-0.32995,-9.75532
8.72384,-0.19468,-0.33938,-9.75742
8.73387,-0.20036,-0.32576,-9.76311
8.74391,-0.19947,-0.30765,-9.76475
8.75395,-0.20246,-0.29763,-9.76071
8.76399,-0.21219,-0.31588,-9.75113
8.77403,-0.18974,-0.31588,-9.74994
8.78406,-0.18854,-0.31484,-9.76415
8.7941,-0.18839,-0.32711,-9.76849
8.80414,-0.18211,-0.33444,-9.77268
8.81418,-0.17747,-0.33399,-9.75622
8.82421,-0.16625,-0.331,-9.75428
8.83425,-0.16236,-0.32621,-9.77313
8.84429,-0.17852,-0.32426,-9.77597
8.85433,-0.17912,-0.31125,-9.76281
8.86436,-0.19333,-0.30436,-9.76071
8.8744,-0.19857,-0.31424,-9.76744
8.88444,-0.19303,-0.31035,-9.75682
8.89448,-0.19303,-0.31274,-9.76011
8.90451,-0.20635,-0.32666,-9.75921
8.91455,-0.21009,-0.33429,-9.75009
8.92459,-0.20815,-0.32486,-9.75772
8.93463,-0.19468,-0.31304,-9.75233
8.94466,-0.19019,-0.31618,-9.75712
8.9547,-0.18046,-0.31214,-9.76505
8.96474,-0.16266,-0.31633,-9.75622
8.97477,-0.16595,-0.3111,-9.767
8.98481,-0.16715,-0.33175,-9.77582
8.99485,-0.19348,-0.32367,-9.77014
9.00551,-0.19348,-0.32367,-9.77014
9.01555,-0.19348,-0.33594,-9.77029
9.02559,-0.19318,-0.32232,-9.75936
9.03563,-0.18824,-0.30047,-9.76251
9.04567,-0.18465,-0.3096,-9.75652
9.0557,-0.19797,-0.31065,-9.76056
9.06574,-0.19363,-0.30077,-9.77029
9.07578,-0.2062,-0.30676,-9.77104
9.08582,-0.19468,-0.31499,-9.77837
9.09585,-0.18181,-0.32172,-9.76565
9.10589,-0.18824,-0.33205,-9.76326
9.11593,-0.18989,-0.32965,-9.76789
9.12597,-0.18046,-0.32322,-9.78211
9.136,-0.19019,-0.30601,-9.7637
9.14604,-0.19139,-0.29284,-9.75368
9.15608,-0.18495,-0.31035,-9.75488
9.16612,-0.17792,-0.31005,-9.75966
9.17615,-0.18226,-0.32292,-9.74171
9.18619,-0.17777,-0.33309,-9.76131
9.19623,-0.17478,-0.34417,-9.79034
9.20627,-0.16744,-0.32247,-9.77867
9.2163,-0.18091,-0.31559,-9.75847
9.22634,-0.18585,-0.3111,-9.77792
9.23638,-0.19288,-0.30751,-9.76086
9.24642,-0.19348,-0.31589,-9.75383
9.25645,-0.19872,-0.30945,-9.76191
9.26649,-0.20605,-0.30795,-9.74275
9.27653,-0.21009,-0.31544,-9.75398
9.28656,-0.20396,-0.32606,-9.74679
9.2966,-0.20201,-0.34267,-9.75787
9.30664,-0.19468,-0.33549,-9.75817
9.31668,-0.18585,-0.3319,-9.76535
9.32672,-0.17178,-0.32082,-9.74964
9.33675,-0.167,-0.30736,-9.75517
9.34679,-0.17283,-0.31349,-9.7664
9.35683,-0.17448,-0.31933,-9.77268
9.36686,-0.16535,-0.32157,-9.78166
9.3769,-0.17567,-0.3286,-9.76625
9.38694,-0.17882,-0.33908,-9.77672
9.39698,-0.19782,-0.32397,-9.75847
9.40702,-0.20261,-0.33369,-9.74126
9.41705,-0.2059,-0.32082,-9.75547
9.42709,-0.20051,-0.32397,-9.76565
9.43713,-0.20171,-0.31663,-9.75054
9.44717,-0.20725,-0.29883,-9.75667
9.4572,-0.19543,-0.30421,-9.764
9.46724,-0.20051,-0.3078,-9.75577
9.47728,-0.18809,-0.30586,-9.75293
9.48732,-0.17508,-0.32382,-9.75577
9.49735,-0.16879,-0.34417,-9.77642
9.50739,-0.17119,-0.34102,-9.7643
9.51743,-0.17612,-0.33324,-9.78076
9.52747,-0.19004,-0.31963,-9.76685
9.5375,-0.18301,-0.32322,-9.76744
9.54754,-0.1866,-0.32247,-9.77223
9.55758,-0.18121,-0.31379,-9.77418
9.56761,-0.19184,-0.34342,-9.74829
9.57828,-0.19184,-0.34342,-9.74829
9.58832,-0.19962,-0.34836,-9.77388
9.59836,-0.19603,-0.3286,-9.76535
9.60839,-0.19647,-0.32037,-9.76535
9.61843,-0.2065,-0.32157,-9.764
9.62847,-0.18241,-0.31903,-9.76804
9.63851,-0.17044,-0.30302,-9.76251
9.64854,-0.17448,-0.32037,-9.74889
9.65858,-0.17298,-0.3295,-9.76939
9.66862,-0.16236,-0.32756,-9.76385
9.67866,-0.18809,-0.32666,-9.75338
9.68869,-0.18794,-0.35015,-9.77134
9.69873,-0.19213,-0.33609,-9.7667
9.70877,-0.19722,-0.32441,-9.75413
9.71881,-0.18465,-0.31768,-9.75936
9.72884,-0.17747,-0.30466,-9.76744
9.73888,-0.20845,-0.30541,-9.76311
9.74892,-0.19902,-0.31244,-9.76595
9.75896,-0.1866,-0.31529,-9.74919
9.76899,-0.18286,-0.32007,-9.7661
9.77903,-0.17852,-0.34087,-9.75502
9.78907,-0.18929,-0.34192,-9.76864
9.79911,-0.18555,-0.32621,-9.764
9.80914,-0.18046,-0.32277,-9.76655
9.81918,-0.19992,-0.3292,-9.77358
9.82922,-0.20081,-0.32202,-9.75233
9.83926,-0.19139,-0.32397,-9.75667
9.84929,-0.19827,-0.31873,-9.75562
9.85933,-0.19677,-0.30182,-9.75742
9.86937,-0.1854,-0.31574,-9.75981
9.87941,-0.19169,-0.32127,-9.75039
9.88944,-0.19034,-0.32112,-9.75248
9.89948,-0.19363,-0.32636,-9.77104
9.90952,-0.20036,-0.32681,-9.76999
9.91956,-0.19917,-0.32187,-9.77433
9.92959,-0.17927,-0.31918,-9.75712
9.93963,-0.186,-0.32905,-9.77238
9.94967,-0.18211,-0.31918,-9.77178
9.95971,-0.17957,-0.31319,-9.78286
9.96974,-0.19079,-0.32756,-9.76984
9.97978,-0.19273,-0.32337,-9.77343
9.98982,-0.19797,-0.31065,-9.75353
9.99986,-0.19184,-0.3114,-9.75877
10.00989,-0.18765,-0.32905,-9.77208
10.01993,-0.17867,-0.32905,-9.77343
10.02997,-0.18375,-0.30765,-9.76715
10.04001,-0.19543,-0.29957,-9.75413
10.05004,-0.1839,-0.31499,-9.76789
10.06008,-0.18031,-0.33235,-9.77702
10.07012,-0.17612,-0.33384,-9.7646
10.08016,-0.17388,-0.32382,-9.7658
10.09019,-0.18585,-0.33923,-9.75323
10.10023,-0.18495,-0.32845,-9.77567
10.11027,-0.18495,-0.3078,-9.74829
10.12031,-0.19273,-0.32546,-9.75248
10.13034,-0.17223,-0.32097,-9.75443
10.14038,-0.17208,-0.30661,-9.7646
10.15042,-0.19887,-0.30631,-9.75951
10.16046,-0.19812,-0.31214,-9.75877
10.17049,-0.19917,-0.31963,-9.74679
10.18053,-0.19184,-0.31783,-9.74994
10.19057,-0.18286,-0.32636,-9.75862
10.20061,-0.19737,-0.33893,-9.76625
10.21064,-0.20022,-0.32905,-9.76236
10.22068,-0.19498,-0.32367,-9.76864
10.23072,-0.19243,-0.3093,-9.77612
10.24076,-0.17642,-0.29913,-9.77119
10.25079,-0.19228,-0.29763,-9.77313
10.26083,-0.18974,-0.30137,-9.76266
10.27087,-0.17104,-0.32007,-9.76969
10.28091,-0.18361,-0.31948,-9.74754
10.29094,-0.19722,-0.33339,-9.75113
10.30098,-0.19243,-0.33264,-9.77029
10.31102,-0.18001,-0.33399,-9.7643
10.32106,-0.19767,-0.32546,-9.76475
10.33109,-0.19707,-0.31469,-9.75278
10.34113,-0.19588,-0.31993,-9.74709
10.35117,-0.20216,-0.30541,-9.75951
10.36121,-0.19498,-0.29808,-9.78121
10.37124,-0.1866,-0.30541,-9.75832
10.38128,-0.17268,-0.32037,-9.7634
10.39132,-0.18735,-0.32875,-9.76924
10.40136,-0.19662,-0.33923,-9.77597
10.41139,-0.19348,-0.33324,-9.75398
10.42143,-0.17882,-0.32801,-9.7432
10.43147,-0.18211,-0.32905,-9.76879
10.44151,-0.18256,-0.32052,-9.77732
10.45154,-0.17148,-0.30451,-9.77253
10.46158,-0.17208,-0.31439,-9.76834
10.47162,-0.19064,-0.31394,-9.75802
10.48166,-0.20605,-0.3108,-9.7637
10.49169,-0.21054,-0.3096,-9.76954
10.50173,-0.19303,-0.31813,-9.78181
10.51177,-0.17762,-0.33534,-9.75877
10.52181,-0.18361,-0.3307,-9.7664
10.53184,-0.17328,-0.32277,-9.75233
10.54188,-0.19692,-0.32082,-9.75218
10.55192,-0.20066,-0.32067,-9.74859
10.56196,-0.19109,-0.31978,-9.76969
10.572,-0.17119,-0.31424,-9.79273
10.58203,-0.16804,-0.31633,-9.78854
10.59207,-0.17238,-0.31933,-9.75128
10.60211,-0.17403,-0.31678,-9.76819
10.61214,-0.19049,-0.30706,-9.76774
10.62218,-0.19318,-0.30691,-9.74036
10.63222,-0.20141,-0.32172,-9.7673
10.64226,-0.19647,-0.32636,-9.75622
10.65229,-0.19453,-0.32696,-9.7456
10.66233,-0.19199,-0.3301,-9.75577
10.67237,-0.20216,-0.31783,-9.7658
10.68241,-0.19588,-0.30242,-9.75667
10.69245,-0.18989,-0.31499,-9.75203
10.70248,-0.19243,-0.31828,-9.75936
10.71252,-0.19842,-0.29613,-9.77343
10.72256,-0.18061,-0.31304,-9.75592
10.73259,-0.17119,-0.31529,-9.77208
10.74263,-0.186,-0.32666,-9.77463
10.75267,-0.17193,-0.32801,-9.74605
10.76271,-0.18495,-0.33309,-9.75667
10.77274,-0.18884,-0.32546,-9.78136
10.78278,-0.18016,-0.30661,-9.77942
10.79282,-0.18211,-0.32367,-9.75622
10.80286,-0.18435,-0.31484,-9.76969
10.81289,-0.19064,-0.3078,-9.75338
10.82293,-0.21668,-0.30601,-9.76101
10.83297,-0.20485,-0.3114,-9.78061
10.84301,-0.19977,-0.32307,-9.77044
10.85304,-0.18405,-0.31873,-9.74979
10.86308,-0.18794,-0.32591,-9.74709
10.87312,-0.19423,-0.32142,-9.77253
10.88316,-0.19213,-0.3313,-9.77149
10.89319,-0.18121,-0.32441,-9.76744
10.90323,-0.17493,-0.32995,-9.77852
10.91327,-0.18031,-0.34043,-9.79034
10.92331,-0.17463,-0.32262,-9.77358
10.93334,-0.19902,-0.31244,-9.7245
10.94338,-0.19962,-0.3111,-9.74231
10.95342,-0.20426,-0.31469,-9.76146
10.96346,-0.18106,-0.3081,-9.77418
10.97349,-0.18525,-0.30751,-9.7655
10.98353,-0.21219,-0.31753,-9.75727
10.99357,-0.19992,-0.3295,-9.75338
11.00361,-0.19857,-0.31978,-9.77283
11.01365,-0.18765,-0.31618,-9.77298
11.02368,-0.1631,-0.32621,-9.76116
11.03372,-0.15502,-0.33728,-9.78256
11.04376,-0.14365,-0.33534,-9.80201
11.0538,-0.13422,-0.31918,-9.75697
11.06383,-0.15517,-0.32756,-9.78001
11.07387,-0.18136,-0.31978,-9.79468
11.08391,-0.17942,-0.30361,-9.76744
11.09395,-0.18405,-0.30765,-9.78705
11.10398,-0.18854,-0.31603,-9.77358
11.11402,-0.18106,-0.32636,-9.72824
11.12406,-0.21383,-0.33773,-9.6606
11.1341,-0.26635,-0.34417,-9.66838
11.14413,-0.27069,-0.33848,-9.79363
11.15417,-0.2463,-0.30182,-9.81593
11.16421,-0.21817,-0.3114,-9.81159
11.17425,-0.18181,-0.3111,-9.82072
11.18428,-0.17463,-0.31155,-9.82865
11.19432,-0.13467,-0.29553,-9.75607
11.20436,-0.12465,-0.31723,-9.52907
11.2144,-0.16071,-0.38188,-9.61437
11.22443,-0.17238,-0.34177,-9.87593
11.23447,-0.18271,-0.25453,-9.9518
11.24451,-0.15248,-0.29134,-9.8074
11.25455,-0.2068,-0.40417,-9.7227
11.26458,-0.23343,-0.39624,-9.8258
11.27462,-0.22745,-0.2897,-9.84211
11.28466,-0.19573,-0.29928,-9.55885
11.2947,-0.18809,-0.42138,-9.54344
11.30473,-0.18944,-0.40417,-9.81712
11.31477,-0.2065,-0.21892,-9.91753
11.32481,-0.20665,-0.16819,-9.79453
11.33485,-0.21548,-0.31783,-9.77882
11.34488,-0.24166,-0.36347,-9.75323
11.35492,-0.19692,-0.27084,-9.78854
11.36496,-0.21443,-0.23343,-9.85962
11.375,-0.17163,-0.37065,-9.79124
11.38503,-0.16011,-0.46717,-9.69831
11.39507,-0.15158,-0.37664,-9.71268
11.40511,-0.15772,-0.29209,-9.7652
11.41515,-0.17702,-0.33908,-9.80231
11.42518,-0.18405,-0.39325,-9.75158
11.43522,-0.17837,-0.35763,-9.7459
11.44526,-0.19692,-0.26381,-9.75248
11.4553,-0.22715,-0.24645,-9.75832
11.46533,-0.23418,-0.32277,-9.75353
11.47537,-0.227,-0.32247,-9.75323
11.48541,-0.24496,-0.23927,-9.73782
11.49545,-0.27863,-0.23314,-9.71223
11.50548,-0.27114,-0.2879,-9.72345
11.51552,-0.28611,-0.29913,-9.7637
11.52556,-0.26037,-0.25603,-9.74694
11.5356,-0.23224,-0.29553,-9.75368
11.54564,-0.21802,-0.36407,-9.80515
11.55567,-0.19094,-0.36302,-9.73722
11.56571,-0.1646,-0.33235,-9.68365
11.57575,-0.14889,-0.32202,-9.76266
11.58579,-0.13348,-0.29942,-9.83179
11.59582,-0.11717,-0.28581,-9.76969
11.60586,-0.13243,-0.29494,-9.71911
11.6159,-0.15592,-0.34132,-9.77119
11.62594,-0.17313,-0.34282,-9.81458
11.63597,-0.18974,-0.32816,-9.7441
11.64601,-0.24391,-0.35898,-9.70549
11.65605,-0.3093,-0.36287,-9.75248
11.66609,-0.30915,-0.32681,-9.7637
11.67612,-0.27758,-0.29419,-9.7664
11.68616,-0.23613,-0.30556,-9.75832
11.6962,-0.19842,-0.31633,-9.76879
11.70624,-0.19139,-0.26306,-9.76101
11.71627,-0.18286,-0.25289,-9.7438
11.72631,-0.17148,-0.25812,-9.75936
11.73635,-0.16011,-0.28955,-9.76984
11.74639,-0.18316,-0.29509,-9.77089
11.75642,-0.18301,-0.28401,-9.75742
11.76646,-0.19573,-0.32576,-9.7649
11.7765,-0.24556,-0.37679,-9.75607
11.78654,-0.24152,-0.36706,-9.76759
11.79657,-0.24017,-0.35539,-9.74979
11.80661,-0.24346,-0.35898,-9.77807
11.81665,-0.24945,-0.36542,-9.7851
11.82669,-0.23119,-0.34506,-9.75802
11.83672,-0.2077,-0.30541,-9.74979
11.84676,-0.18181,-0.30526,-9.76939
11.8568,-0.15532,-0.2909,-9.78091
11.86684,-0.16385,-0.27863,-9.74679
11.87687,-0.16251,-0.28012,-9.74231
11.88691,-0.1878,-0.27638,-9.76939
11.89695,-0.21009,-0.28042,-9.75817
11.90699,-0.2267,-0.29164,-9.74186
11.91702,-0.2472,-0.31828,-9.75383
11.92706,-0.24241,-0.34252,-9.75667
11.9371,-0.24526,-0.3497,-9.7441
11.94714,-0.24137,-0.35659,-9.74126
11.95717,-0.20036,-0.35359,-9.75218
11.96721,-0.19528,-0.34432,-9.74021
11.97725,-0.17193,-0.32037,-9.78839
11.98729,-0.18525,-0.29972,-9.83568
11.99732,-0.18705,-0.28715,-9.76311
12.00736,-0.17193,-0.31574,-9.71223
12.0174,-0.15981,-0.33698,-9.74305
12.02744,-0.15562,-0.3117,-9.78391
12.03747,-0.19543,-0.27638,-9.77867
12.04751,-0.24062,-0.29838,-9.76789
12.05755,-0.27174,-0.287,-9.75054
12.06759,-0.2885,-0.25438,-9.73632
12.07762,-0.27459,-0.25573,-9.75113
12.08766,-0.26187,-0.27952,-9.77747
12.0977,-0.25423,-0.31484,-9.72435
12.10774,-0.25349,-0.32367,-9.72899
12.11777,-0.23538,-0.30631,-9.7875
12.12781,-0.22101,-0.29553,-9.77119
12.13785,-0.19558,-0.30691,-9.74889
12.14789,-0.18869,-0.30765,-9.77208
12.15792,-0.18944,-0.31259,-9.77358
12.16796,-0.1878,-0.32397,-9.77208
12.178,-0.16026,-0.34985,-9.78615
12.18804,-0.14081,-0.3711,-9.76924
12.19807,-0.14904,-0.38906,-9.77104
12.20811,-0.16954,-0.3732,-9.77627
12.21815,-0.20276,-0.36586,-9.79079
12.22819,-0.208,-0.36137,-9.76475
12.23822,-0.19932,-0.3696,-9.75398
12.24826,-0.16954,-0.36317,-9.77358
12.2583,-0.15966,-0.33205,-9.78989
12.26834,-0.18331,-0.3093,-9.76864
12.27838,-0.2062,-0.28865,-9.73333
12.28841,-0.2252,-0.27159,-9.73797
12.29845,-0.21398,-0.24256,-9.76326
12.30849,-0.23418,-0.22431,-9.7441
12.31853,-0.25408,-0.24975,-9.7251
12.32856,-0.2891,-0.29404,-9.73078
12.3386,-0.26995,-0.28296,-9.73033
12.34864,-0.25349,-0.28566,-9.73662
12.35868,-0.24062,-0.3078,-9.77238
12.36871,-0.26351,-0.32741,-9.77014
12.37875,-0.23747,-0.31274,-9.74395
12.38879,-0.21264,-0.30945,-9.75188
12.39883,-0.17283,-0.33788,-9.76774
12.40886,-0.14021,-0.38038,-9.75517
12.4189,-0.12106,-0.40357,-9.79722
12.42894,-0.12091,-0.38681,-9.83463
12.43898,-0.11956,-0.38202,-9.8071
12.44901,-0.12629,-0.40043,-9.78361
12.45905,-0.13452,-0.37963,-9.81069
12.46909,-0.16221,-0.33354,-9.79483
12.47913,-0.19543,-0.31244,-9.77268
12.48916,-0.22087,-0.31963,-9.79947
12.4992,-0.25229,-0.29045,-9.7438
12.50924,-0.26321,-0.25872,-9.72285
12.51928,-0.27997,-0.23792,-9.72555
12.52931,-0.32022,-0.21892,-9.74216
12.53935,-0.31948,-0.21623,-9.71851
12.54939,-0.30511,-0.23224,-9.72959
12.55943,-0.27608,-0.25184,-9.74335
12.56946,-0.25079,-0.2882,-9.74889
12.5795,-0.22865,-0.30107,-9.75652
12.58954,-0.19588,-0.34058,-9.77059
12.59958,-0.18286,-0.34596,-9.77807
12.60961,-0.15233,-0.33489,-9.77672
12.61965,-0.13752,-0.35434,-9.77927
12.62969,-0.13827,-0.35928,-9.76969
12.63973,-0.123,-0.37754,-9.7869
12.64976,-0.10639,-0.36871,-9.81204
12.6598,-0.10624,-0.37754,-9.79079
12.66984,-0.13348,-0.3708,-9.78331
12.67988,-0.17059,-0.36317,-9.76475
12.68991,-0.19288,-0.34641,-9.75862
12.69995,-0.21997,-0.33025,-9.75996
12.70999,-0.23658,-0.29464,-9.73961
12.72003,-0.25139,-0.28566,-9.74515
12.73006,-0.26037,-0.28745,-9.7646
12.7401,-0.25932,-0.26007,-9.73946
12.75014,-0.24675,-0.26875,-9.72734
12.76018,-0.25753,-0.26202,-9.73812
12.77021,-0.25932,-0.25693,-9.74874
12.78025,-0.24765,-0.25977,-9.73976
12.79029,-0.24047,-0.2897,-9.75428
12.80033,-0.21922,-0.32187,-9.77134
12.81036,-0.19917,-0.33998,-9.77792
12.8204,-0.17957,-0.34342,-9.77044
12.83044,-0.17403,-0.35868,-9.77268
12.84048,-0.18106,-0.36766,-9.77792
12.85051,-0.17208,-0.36796,-9.76999
12.86055,-0.16595,-0.35359,-9.78061
12.87059,-0.14829,-0.34641,-9.79109
12.88063,-0.15233,-0.34656,-9.78375
12.89066,-0.16445,-0.34312,-9.75607
12.9007,-0.18989,-0.33893,-9.75069
12.91074,-0.19617,-0.31469,-9.76071
12.92078,-0.21623,-0.28715,-9.76221
12.93081,-0.23703,-0.27833,-9.76011
12.94085,-0.249,-0.30287,-9.74605
12.95089,-0.24945,-0.28955,-9.72779
12.96093,-0.25049,-0.28865,-9.75009
12.97096,-0.23927,-0.29673,-9.77463
12.981,-0.22326,-0.28536,-9.75892
12.99104,-0.20485,-0.32367,-9.74904
13.0017,-0.20081,-0.31514,-9.77119
13.01174,-0.20081,-0.31514,-9.77119
13.02178,-0.18196,-0.32875,-9.76789
13.03182,-0.17971,-0.34192,-9.77029
13.04185,-0.15443,-0.34821,-9.78765
13.05189,-0.17253,-0.33833,-9.76161
13.06193,-0.20411,-0.33055,-9.76311
13.07197,-0.20889,-0.3283,-9.77986
13.082,-0.20351,-0.32127,-9.7652
13.09204,-0.20545,-0.30047,-9.75592
13.10208,-0.21787,-0.31409,-9.74096
13.11212,-0.22266,-0.3096,-9.75787
13.12215,-0.2255,-0.29598,-9.76834
13.13219,-0.23299,-0.29509,-9.75921
13.14223,-0.21877,-0.29299,-9.75892
13.15227,-0.22146,-0.2885,-9.74949
13.1623,-0.22356,-0.29913,-9.76296
13.17234,-0.22476,-0.30317,-9.77163
13.18238,-0.22356,-0.29868,-9.764
13.19242,-0.19064,-0.32277,-9.76355
13.20245,-0.18735,-0.3307,-9.77568
13.21249,-0.19258,-0.3283,-9.77523
13.22253,-0.19049,-0.32905,-9.7667
13.23257,-0.19213,-0.32337,-9.7673
13.24261,-0.18166,-0.34013,-9.77208
13.25264,-0.19827,-0.33489,-9.76715
13.26268,-0.19004,-0.32621,-9.77747
13.27272,-0.19603,-0.32412,-9.76116
13.28276,-0.2071,-0.31693,-9.76565
13.29279,-0.20066,-0.32651,-9.75308
13.30283,-0.21024,-0.29464,-9.77119
13.31287,-0.2059,-0.28311,-9.76984
13.32291,-0.22296,-0.28686,-9.75488
13.33294,-0.21249,-0.29523,-9.76595
13.34298,-0.22012,-0.29538,-9.77104
13.35302,-0.21009,-0.29703,-9.75413
13.36306,-0.20934,-0.31409,-9.75562
13.37309,-0.20515,-0.32007,-9.77163
13.38313,-0.20934,-0.31409,-9.75637
13.39317,-0.19842,-0.32307,-9.7661
13.40321,-0.21114,-0.32995,-9.77986
13.41324,-0.20575,-0.32741,-9.77478
13.42328,-0.19917,-0.33264,-9.75742
13.43332,-0.19543,-0.32052,-9.75532
13.44336,-0.19797,-0.32292,-9.76789
13.45339,-0.19109,-0.32007,-9.764
13.46343,-0.19423,-0.31738,-9.76715
13.47347,-0.19184,-0.32127,-9.78555
13.48351,-0.18914,-0.31514,-9.75697
13.49354,-0.21458,-0.31289,-9.75772
13.50358,-0.21398,-0.29119,-9.75951
13.51362,-0.23044,-0.30496,-9.77627
13.52366,-0.21204,-0.30661,-9.74799
13.53369,-0.22042,-0.30496,-9.74455
13.54373,-0.21204,-0.31753,-9.76849
13.55377,-0.21368,-0.31768,-9.76759
13.56381,-0.19707,-0.32037,-9.74994
13.57384,-0.20605,-0.31618,-9.7664
13.58388,-0.19558,-0.32097,-9.77149
13.59392,-0.20081,-0.31514,-9.7646
13.60396,-0.20934,-0.31948,-9.76685
13.61399,-0.19199,-0.32531,-9.76535
13.62403,-0.19917,-0.30915,-9.77089
13.63407,-0.20216,-0.31529,-9.77358
13.64411,-0.21278,-0.31424,-9.78076
13.65414,-0.20246,-0.31499,-9.77119
13.66418,-0.22296,-0.31514,-9.76475
13.67484,-0.21952,-0.30691,-9.75996
13.68488,-0.21952,-0.30691,-9.75996
13.69492,-0.21997,-0.32756,-9.75323
13.70496,-0.20396,-0.31633,-9.77403
13.71499,-0.21009,-0.30077,-9.77867
13.72503,-0.20321,-0.29718,-9.74814
13.73507,-0.19303,-0.33279,-9.76415
13.74511,-0.19393,-0.31783,-9.77777
13.75515,-0.205,-0.3102,-9.76221
13.76518,-0.20156,-0.32097,-9.76131
13.77522,-0.2056,-0.32501,-9.77986
13.78526,-0.19617,-0.31723,-9.75802
13.7953,-0.21204,-0.31424,-9.75069
13.80533,-0.21398,-0.31574,-9.77403
13.81537,-0.21548,-0.31933,-9.79139
13.82541,-0.20859,-0.31364,-9.7465
13.83545,-0.20575,-0.32666,-9.7465
13.84548,-0.19737,-0.31514,-9.79363
13.85552,-0.2053,-0.31259,-9.77029
13.86556,-0.19677,-0.31199,-9.74425
13.8756,-0.21204,-0.30526,-9.75727
13.88563,-0.2062,-0.32097,-9.77433
13.89567,-0.20545,-0.3081,-9.75188
13.90571,-0.21039,-0.30691,-9.76445
13.91575,-0.19453,-0.31499,-9.77627
13.92578,-0.21428,-0.29913,-9.76056
13.93582,-0.21712,-0.30137,-9.75443
13.94586,-0.20845,-0.33429,-9.75562
13.9559,-0.18989,-0.32456,-9.76326
13.96593,-0.20051,-0.31678,-9.75069
13.97597,-0.20411,-0.31963,-9.764
13.98601,-0.18824,-0.32052,-9.77807
13.99605,-0.20336,-0.3114,-9.77119
14.00608,-0.20485,-0.29284,-9.74784
14.01612,-0.20291,-0.31588,-9.77313
14.02616,-0.20306,-0.32142,-9.77163
14.0362,-0.20126,-0.32277,-9.74036
14.04623,-0.21847,-0.3096,-9.76131
14.05627,-0.22281,-0.31678,-9.77807
14.06631,-0.21563,-0.31484,-9.76296
14.07635,-0.21099,-0.31753,-9.75622
14.08638,-0.20859,-0.30915,-9.74844
14.09642,-0.19917,-0.30436,-9.75996
14.10646,-0.20321,-0.31184,-9.767
14.1165,-0.1869,-0.30765,-9.77702
14.12653,-0.20725,-0.31663,-9.77328
14.13657,-0.19603,-0.31963,-9.75443
14.14661,-0.19213,-0.32367,-9.77178
14.15665,-0.20171,-0.33115,-9.76161
14.16668,-0.19348,-0.32382,-9.75098
14.17672,-0.22341,-0.32606,-9.78241
14.18676,-0.21533,-0.31409,-9.77523
14.1968,-0.21458,-0.31843,-9.75892
14.20683,-0.21114,-0.30661,-9.75951
14.21687,-0.20291,-0.31439,-9.76161
14.22691,-0.21099,-0.31065,-9.76625
14.23695,-0.2044,-0.32217,-9.77553
14.24698,-0.20934,-0.31738,-9.76535
14.25702,-0.19887,-0.31065,-9.74231
14.26706,-0.20605,-0.31843,-9.74919
14.2771,-0.19947,-0.32112,-9.79199
14.28713,-0.19468,-0.32292,-9.77897
14.29717,-0.21293,-0.31005,-9.73886
14.30721,-0.20171,-0.32247,-9.75368
14.31725,-0.20665,-0.3289,-9.76759
14.32728,-0.20605,-0.30751,-9.76595
14.33732,-0.20351,-0.32741,-9.78106
14.34736,-0.21593,-0.32412,-9.75413
14.3574,-0.21817,-0.31484,-9.74635
14.36743,-0.19258,-0.31618,-9.75562
14.37747,-0.20351,-0.31813,-9.77014
14.38751,-0.20201,-0.30122,-9.76176
14.39755,-0.20321,-0.30571,-9.73856
14.40758,-0.21518,-0.29344,-9.76774
14.41762,-0.21099,-0.30661,-9.79184
14.42766,-0.20216,-0.30451,-9.7673
14.4377,-0.21024,-0.30586,-9.76296
14.44773,-0.20051,-0.32187,-9.77403
14.45777,-0.20455,-0.32441,-9.77627
14.46781,-0.20351,-0.3102,-9.76311
14.47785,-0.20605,-0.32382,-9.77178
14.48788,-0.21308,-0.34761,-9.77523
14.49792,-0.21129,-0.32606,-9.77388
14.50796,-0.21278,-0.32112,-9.77538
14.518,-0.21488,-0.31439,-9.77373
14.52803,-0.21368,-0.34043,-9.76026
14.53807,-0.20426,-0.31903,-9.75592
14.54811,-0.20785,-0.29898,-9.77014
14.55815,-0.2056,-0.30421,-9.76625
14.56818,-0.2059,-0.30676,-9.75847
14.57822,-0.20919,-0.3084,-9.7664
14.58826,-0.21623,-0.3111,-9.7667
14.5983,-0.19992,-0.31035,-9.76535
14.60834,-0.21353,-0.3099,-9.7673
14.61837,-0.21398,-0.32247,-9.76759
14.62841,-0.22146,-0.31394,-9.77059
14.63845,-0.21009,-0.30391,-9.76116
14.64849,-0.2062,-0.31364,-9.75936
14.65852,-0.19992,-0.32067,-9.7646
14.66856,-0.18286,-0.31544,-9.76894
14.6786,-0.20725,-0.31469,-9.7872
14.68864,-0.18869,-0.31529,-9.77328
14.69867,-0.19213,-0.32412,-9.76011
14.70871,-0.19243,-0.31783,-9.75951
14.71875,-0.19632,-0.30661,-9.77104
14.72879,-0.20755,-0.30736,-9.76774
14.73882,-0.22326,-0.31529,-9.77178
14.74886,-0.19273,-0.31259,-9.74829
14.7589,-0.205,-0.31394,-9.76116
14.76894,-0.22266,-0.32471,-9.76296
14.77897,-0.22131,-0.32142,-9.75637
14.78901,-0.21473,-0.32337,-9.7649
14.79905,-0.20994,-0.30556,-9.74156
14.80909,-0.2047,-0.31155,-9.75742
14.81912,-0.20859,-0.33085,-9.76625
14.82916,-0.21174,-0.32037,-9.76101
14.8392,-0.20665,-0.3081,-9.76475
14.84924,-0.20411,-0.32636,-9.78061
14.85927,-0.20665,-0.31214,-9.76236
14.86931,-0.20066,-0.30885,-9.74739
14.87935,-0.21967,-0.32441,-9.75128
14.88939,-0.20665,-0.3111,-9.79647
14.89942,-0.19797,-0.31304,-9.77178
14.90946,-0.20306,-0.32217,-9.73033
14.9195,-0.20455,-0.32771,-9.76131
14.92954,-0.20815,-0.3295,-9.75084
14.93957,-0.22281,-0.31319,-9.74904
14.94961,-0.21054,-0.30287,-9.75727
14.95965,-0.19752,-0.32307,-9.77747
14.96969,-0.19363,-0.31184,-9.77418
14.97973,-0.19812,-0.30152,-9.75413
14.98976,-0.21817,-0.30751,-9.764
14.9998,-0.20321,-0.30466,-9.7649
15.00984,-0.18974,-0.3114,-9.74066
15.01988,-0.20635,-0.31439,-9.75607
15.02991,-0.20126,-0.31244,-9.77059
15.03995,-0.19932,-0.32037,-9.7649
15.04999,-0.20904,-0.32711,-9.75158
15.06003,-0.20815,-0.32082,-9.76954
15.07006,-0.20022,-0.32187,-9.77882
15.0801,-0.21458,-0.31768,-9.75921
15.09014,-0.21922,-0.32905,-9.76864
15.10018,-0.2083,-0.31559,-9.77942
15.11021,-0.2053,-0.30706,-9.77687
15.12025,-0.20994,-0.31155,-9.76879
15.13029,-0.20411,-0.30481,-9.76221
15.14033,-0.20904,-0.31095,-9.75832
15.15036,-0.20545,-0.32172,-9.75488
15.1604,-0.19468,-0.32262,-9.77328
15.17044,-0.19303,-0.3102,-9.77508
15.18048,-0.20336,-0.32756,-9.76251
15.19051,-0.2074,-0.31229,-9.76415
15.20055,-0.21114,-0.31259,-9.76565
15.21059,-0.21219,-0.31439,-9.73782
15.22063,-0.19752,-0.32367,-9.76475
15.23066,-0.20964,-0.32247,-9.77163
15.2407,-0.19782,-0.31005,-9.76685
15.25074,-0.19872,-0.32217,-9.72764
15.26078,-0.18839,-0.31574,-9.76206
15.27081,-0.19932,-0.31978,-9.78046
15.28085,-0.20156,-0.30616,-9.78989
15.29089,-0.19812,-0.30152,-9.75951
15.30093,-0.19528,-0.31229,-9.75981
15.31096,-0.22221,-0.32022,-9.74964
15.321,-0.21054,-0.31529,-9.7842
15.33104,-0.21668,-0.3093,-9.76819
15.34108,-0.21967,-0.32277,-9.74231
15.35111,-0.21428,-0.32337,-9.74889
15.36115,-0.21009,-0.30855,-9.76849
15.37119,-0.20081,-0.30541,-9.76236
15.38123,-0.19573,-0.32232,-9.76355
15.39126,-0.19842,-0.32382,-9.76445
15.4013,-0.19722,-0.29389,-9.76355
15.41134,-0.18989,-0.30661,-9.75383
15.42138,-0.19453,-0.31559,-9.76505
15.43141,-0.19408,-0.33414,-9.77193
15.44145,-0.21114,-0.31229,-9.77388
15.45149,-0.21742,-0.31514,-9.76385
15.46153,-0.21174,-0.32516,-9.76251
15.47156,-0.22012,-0.32471,-9.75892
15.4816,-0.21578,-0.31394,-9.75996
15.49164,-0.21413,-0.31559,-9.75877
15.50168,-0.19588,-0.31843,-9.78316
15.51172,-0.20366,-0.31693,-9.76326
15.52175,-0.20291,-0.29913,-9.7435
15.53179,-0.20051,-0.29658,-9.76864
15.54183,-0.20246,-0.31379,-9.76969
15.55187,-0.2068,-0.3081,-9.76535
15.5619,-0.20366,-0.30586,-9.76221
15.57194,-0.19677,-0.31648,-9.76909
15.58198,-0.21533,-0.309,-9.73557
15.59201,-0.21159,-0.31903,-9.76535
15.60205,-0.21847,-0.3286,-9.79049
15.61209,-0.21533,-0.31708,-9.77448
15.62213,-0.21039,-0.32965,-9.74979
15.63216,-0.20874,-0.33145,-9.76969
15.6422,-0.20411,-0.33175,-9.78435
15.65224,-0.19199,-0.30751,-9.77508
15.66228,-0.20051,-0.31155,-9.76789
15.67231,-0.19662,-0.31693,-9.75712
15.68235,-0.20066,-0.31633,-9.75308
15.69239,-0.19812,-0.31618,-9.77463
15.70243,-0.21533,-0.31603,-9.78181
15.71246,-0.20665,-0.31454,-9.76445
15.7225,-0.2059,-0.30092,-9.74575
15.73254,-0.2047,-0.33025,-9.75098
15.74258,-0.20665,-0.32756,-9.76954
15.75262,-0.21338,-0.31514,-9.76101
15.76265,-0.21847,-0.32082,-9.75547
15.77269,-0.20934,-0.32097,-9.77433
15.78273,-0.20994,-0.31259,-9.77687
15.79277,-0.2062,-0.32591,-9.75308
15.8028,-0.19782,-0.31663,-9.74904
15.81284,-0.19139,-0.31948,-9.76774
15.82288,-0.19423,-0.31065,-9.76176
15.83292,-0.20066,-0.30765,-9.74859
15.84295,-0.20051,-0.31663,-9.7851
15.85299,-0.19258,-0.31693,-9.77523
15.86303,-0.19752,-0.30586,-9.73886
15.87307,-0.20979,-0.31454,-9.75517
15.8831,-0.21129,-0.32546,-9.76759
15.89314,-0.21353,-0.31783,-9.7667
15.90318,-0.2083,-0.30855,-9.75742
15.91322,-0.20815,-0.31978,-9.76879
15.92325,-0.21937,-0.30736,-9.75742
15.93329,-0.21069,-0.309,-9.75173
15.94333,-0.20994,-0.3099,-9.78121
15.95337,-0.21039,-0.30691,-9.79348
15.9634,-0.20201,-0.32217,-9.75921
15.97344,-0.20276,-0.31708,-9.75009
15.98348,-0.19378,-0.30825,-9.75951
15.99352,-0.20156,-0.31888,-9.76625
16.00355,-0.2267,-0.31469,-9.77897
16.01359,-0.20186,-0.31678,-9.7637
16.02363,-0.20949,-0.32127,-9.75951
16.03367,-0.21653,-0.31603,-9.76101
16.0437,-0.20725,-0.32516,-9.76535
16.05374,-0.20904,-0.31259,-9.76984
16.06378,-0.20785,-0.32277,-9.74425
16.07382,-0.20755,-0.32516,-9.75697
16.08385,-0.20605,-0.31184,-9.76894
16.09389,-0.20815,-0.30855,-9.75996
16.10393,-0.21323,-0.30541,-9.75667
16.11397,-0.20096,-0.31783,-9.77867
16.124,-0.21114,-0.32456,-9.75532
16.13404,-0.20246,-0.32172,-9.76879
16.14408,-0.21009,-0.31813,-9.77538
16.15412,-0.21772,-0.31574,-9.78645
16.16415,-0.21144,-0.30676,-9.76101
16.17419,-0.21533,-0.31753,-9.74769
16.18423,-0.21323,-0.32801,-9.75637
16.19427,-0.20889,-0.32367,-9.75697
16.2043,-0.20366,-0.30631,-9.75203
16.21434,-0.21249,-0.30496,-9.7664
16.22438,-0.2077,-0.3289,-9.75308
16.23442,-0.21353,-0.31334,-9.74979
16.24446,-0.21712,-0.3102,-9.77538
16.25449,-0.2083,-0.3114,-9.75907
16.26453,-0.21174,-0.32247,-9.75966
16.27457,-0.22101,-0.33264,-9.76789
16.28461,-0.2062,-0.32696,-9.75503
16.29464,-0.20545,-0.30556,-9.75218
16.30468,-0.21548,-0.33698,-9.76176
16.31472,-0.19962,-0.32412,-9.76281
16.32476,-0.19528,-0.31244,-9.75098
16.33479,-0.20007,-0.30765,-9.74724
16.34483,-0.19662,-0.31663,-9.76056
16.35487,-0.20426,-0.31603,-9.76071
16.36491,-0.20366,-0.30137,-9.75158
16.37494,-0.21069,-0.30466,-9.7465
16.38498,-0.20845,-0.31125,-9.78645
16.39502,-0.22027,-0.29853,-9.75862
16.40506,-0.20635,-0.30242,-9.73856
16.41509,-0.19992,-0.31229,-9.76415
16.42513,-0.20695,-0.31484,-9.78974
16.43517,-0.20111,-0.30541,-9.76056
16.44521,-0.20231,-0.30332,-9.75488
16.45524,-0.18944,-0.33534,-9.767
16.46528,-0.20515,-0.32621,-9.74844
16.47532,-0.21039,-0.309,-9.75787
16.48536,-0.21219,-0.33384,-9.77104
16.49539,-0.21383,-0.32801,-9.77373
16.50543,-0.20695,-0.32337,-9.76715
16.51547,-0.205,-0.32666,-9.75413
16.52551,-0.21099,-0.31828,-9.74979
16.53554,-0.20904,-0.31289,-9.75996
16.54558,-0.19498,-0.3117,-9.75981
16.55562,-0.19677,-0.30855,-9.76969
16.56566,-0.19812,-0.30945,-9.7456
16.57569,-0.2083,-0.31559,-9.76759
16.58573,-0.19423,-0.31364,-9.75428
16.59577,-0.20575,-0.31499,-9.75458
16.60581,-0.21144,-0.32037,-9.76924
16.61585,-0.21144,-0.3283,-9.76834
16.62588,-0.21398,-0.31828,-9.76056
16.63592,-0.20575,-0.31723,-9.7453
16.64596,-0.22191,-0.32022,-9.79079
16.656,-0.21802,-0.31484,-9.764
16.66603,-0.19169,-0.32112,-9.75173
16.67607,-0.18989,-0.32426,-9.75218
16.68611,-0.17912,-0.32441,-9.78091
16.69615,-0.19258,-0.31095,-9.77373
16.70618,-0.20485,-0.30032,-9.76864
16.71622,-0.19453,-0.29913,-9.76535
16.72626,-0.19423,-0.32441,-9.75398
16.7363,-0.20426,-0.32097,-9.75248
16.74633,-0.22715,-0.30975,-9.7658
16.75637,-0.21802,-0.31828,-9.76909
16.76641,-0.22206,-0.3084,-9.75562
16.77645,-0.21982,-0.32591,-9.76071
16.78648,-0.20605,-0.31125,-9.77478
16.79652,-0.2071,-0.32441,-9.73363
16.80656,-0.20022,-0.31409,-9.76924
16.8166,-0.19842,-0.31693,-9.78286
16.82663,-0.19797,-0.31484,-9.75996
16.83667,-0.19782,-0.32052,-9.74784
16.84671,-0.20336,-0.32187,-9.75263
16.85675,-0.19977,-0.31319,-9.77178
16.86678,-0.20545,-0.30391,-9.76535
16.87682,-0.19947,-0.30855,-9.75817
16.88686,-0.2065,-0.32711,-9.77253
16.8969,-0.21323,-0.31693,-9.74395
16.90693,-0.21832,-0.3114,-9.76326
16.91697,-0.21578,-0.31738,-9.79094
16.92701,-0.20231,-0.3114,-9.7646
16.93705,-0.20306,-0.31903,-9.75039
16.94708,-0.2065,-0.32082,-9.7655
16.95712,-0.2071,-0.30855,-9.7667
16.96716,-0.20889,-0.30272,-9.75862
16.9772,-0.2074,-0.31903,-9.76595
16.98723,-0.19707,-0.32441,-9.77508
16.99727,-0.2047,-0.32816,-9.76445
17.00794,-0.2068,-0.32531,-9.76236
17.01798,-0.20695,-0.32307,-9.78106
17.02801,-0.2044,-0.32441,-9.76834
17.03805,-0.21204,-0.31574,-9.75218
17.04809,-0.20575,-0.31978,-9.76565
17.05813,-0.21623,-0.31873,-9.78301
17.06816,-0.21129,-0.31738,-9.76834
17.0782,-0.20261,-0.32292,-9.74171
17.08824,-0.20785,-0.31603,-9.76505
17.09828,-0.20949,-0.30451,-9.77807
17.10831,-0.19887,-0.31603,-9.76221
17.11835,-0.20366,-0.31648,-9.7661
17.12839,-0.20904,-0.30601,-9.77942
17.13843,-0.20725,-0.30137,-9.77373
17.14846,-0.20396,-0.30631,-9.76355
17.1585,-0.20171,-0.30347,-9.76101
17.16854,-0.20426,-0.32845,-9.74934
17.17858,-0.21653,-0.32801,-9.75233
17.18861,-0.2062,-0.30601,-9.77642
17.19865,-0.21443,-0.31813,-9.764
17.20869,-0.22236,-0.32576,-9.7649
17.21873,-0.21278,-0.31918,-9.77283
17.22876,-0.21503,-0.3081,-9.77298
17.2388,-0.21114,-0.31035,-9.75996
17.24884,-0.2077,-0.33339,-9.75787
17.25888,-0.20874,-0.32621,-9.77523
17.26891,-0.18854,-0.31648,-9.74739
17.27895,-0.1872,-0.31319,-9.75622
17.28899,-0.20785,-0.32875,-9.77912
17.29903,-0.19947,-0.30481,-9.75128
17.30906,-0.20156,-0.31783,-9.73512
17.3191,-0.2065,-0.30706,-9.78031
17.32914,-0.21922,-0.31514,-9.77178
17.33918,-0.20396,-0.31648,-9.75503
17.34921,-0.21488,-0.31364,-9.76011
17.35925,-0.21219,-0.32636,-9.77523
17.36929,-0.21219,-0.31274,-9.75413
17.37933,-0.21578,-0.31125,-9.74964
17.38936,-0.19453,-0.30721,-9.76355
17.3994,-0.19243,-0.32217,-9.77762
17.40944,-0.19408,-0.3114,-9.76385
17.41948,-0.2065,-0.3108,-9.75577
17.42951,-0.21144,-0.32786,-9.75263
17.43955,-0.20171,-0.31693,-9.77044
17.44959,-0.19977,-0.30795,-9.76879
17.45963,-0.20934,-0.33205,-9.77014
17.46966,-0.21398,-0.3301,-9.74171
17.4797,-0.20022,-0.31514,-9.75802
17.48974,-0.20994,-0.31588,-9.77807
17.49978,-0.20725,-0.31978,-9.76954
17.50981,-0.2044,-0.32202,-9.74665
17.51985,-0.19692,-0.32875,-9.77134
17.52989,-0.19977,-0.31184,-9.77208
17.53993,-0.20381,-0.29194,-9.74964
17.54996,-0.19962,-0.30077,-9.76625
17.56,-0.2074,-0.32127,-9.7643
17.57004,-0.20755,-0.31738,-9.7673
17.58008,-0.21189,-0.30526,-9.75607
17.59011,-0.22715,-0.32262,-9.76041
17.60015,-0.20411,-0.33235,-9.76685
17.61019,-0.20126,-0.31738,-9.76041
17.62023,-0.22012,-0.30751,-9.74949
17.63026,-0.21578,-0.32277,-9.76041
17.6403,-0.20411,-0.31708,-9.77089
17.65034,-0.19603,-0.30242,-9.76789
17.66038,-0.18989,-0.29883,-9.76819
17.67041,-0.19498,-0.31274,-9.73961
17.68108,-0.19498,-0.31274,-9.73961
17.69112,-0.20934,-0.29688,-9.74261
17.70115,-0.208,-0.3102,-9.76415
17.71119,-0.21219,-0.31948,-9.76191
17.72123,-0.20156,-0.31603,-9.76161
17.73127,-0.21323,-0.32247,-9.75832
17.7413,-0.2261,-0.30855,-9.74021
17.75134,-0.21877,-0.32097,-9.75383
17.76138,-0.19124,-0.3292,-9.7842
17.77142,-0.20096,-0.31588,-9.76924
17.78145,-0.19647,-0.31409,-9.74919
17.79149,-0.20859,-0.3283,-9.75353
17.80153,-0.2083,-0.3096,-9.76834
17.81157,-0.20141,-0.31424,-9.76879
17.8216,-0.20276,-0.31574,-9.75996
17.83164,-0.20605,-0.32337,-9.77029
17.84168,-0.21264,-0.32187,-9.75577
17.85172,-0.21862,-0.31738,-9.74545
17.86175,-0.22087,-0.30107,-9.77807
17.87179,-0.21413,-0.31184,-9.77059
17.88183,-0.20605,-0.309,-9.75532
17.89187,-0.21264,-0.31469,-9.75413
17.90191,-0.21114,-0.31364,-9.76146
17.91194,-0.20396,-0.32292,-9.76969
17.92198,-0.19962,-0.31544,-9.75398
17.93202,-0.19528,-0.30751,-9.76131
17.94206,-0.21293,-0.32142,-9.77433
17.95209,-0.21009,-0.31065,-9.7634
17.96213,-0.20605,-0.30451,-9.75742
17.97217,-0.20351,-0.32621,-9.75727
17.98221,-0.19917,-0.33653,-9.7661
17.99224,-0.2056,-0.32741,-9.75921
18.00228,-0.20231,-0.3319,-9.75577
18.01232,-0.208,-0.31349,-9.75353
18.02236,-0.21742,-0.31035,-9.77014
18.03239,-0.20231,-0.31334,-9.77792
18.04243,-0.21024,-0.31259,-9.76326
18.05247,-0.19842,-0.31603,-9.7649
18.06251,-0.19737,-0.31574,-9.76101
18.07254,-0.19767,-0.31723,-9.767
18.08258,-0.22116,-0.31065,-9.76954
18.09262,-0.2047,-0.32127,-9.75996
18.10266,-0.20096,-0.31379,-9.76789
18.11269,-0.20306,-0.31544,-9.77508
18.12273,-0.20291,-0.31618,-9.76176
18.13277,-0.19408,-0.32142,-9.76939
18.14281,-0.19528,-0.32157,-9.75263
18.15284,-0.20381,-0.32606,-9.75592
18.16288,-0.19722,-0.31618,-9.75098
18.17292,-0.20066,-0.31349,-9.76715
18.18296,-0.21653,-0.31304,-9.75532
18.19299,-0.20411,-0.3087,-9.75966
18.20303,-0.20231,-0.31978,-9.75817
18.21307,-0.208,-0.30646,-9.74799
18.22311,-0.20261,-0.31065,-9.73797
18.23314,-0.21967,-0.31304,-9.75697
18.24318,-0.21159,-0.32142,-9.76999
18.25322,-0.21533,-0.31214,-9.75517
18.26326,-0.20306,-0.32771,-9.75383
18.27329,-0.20186,-0.31828,-9.77208
18.28333,-0.19049,-0.31499,-9.75398
18.29337,-0.19243,-0.32905,-9.75278
18.30341,-0.19812,-0.32651,-9.78256
18.31344,-0.19647,-0.31978,-9.77762
18.32348,-0.19258,-0.3084,-9.75577
18.33352,-0.20051,-0.31319,-9.76206
18.34356,-0.20695,-0.31559,-9.79438
18.35359,-0.20351,-0.30691,-9.76819
18.36363,-0.21159,-0.30706,-9.76086
18.37367,-0.22281,-0.31828,-9.76565
18.38371,-0.21458,-0.29598,-9.75906
18.39374,-0.21697,-0.29823,-9.74665
18.40378,-0.22505,-0.30436,-9.75113
18.41382,-0.21712,-0.32516,-9.77523
18.42386,-0.21877,-0.30691,-9.74889
18.43389,-0.2252,-0.29972,-9.75233
18.44393,-0.21518,-0.31184,-9.75667
18.45397,-0.21308,-0.32636,-9.74799
18.46401,-0.2056,-0.33459,-9.73557
18.47405,-0.2059,-0.3313,-9.7667
18.48408,-0.20126,-0.34297,-9.78435
18.49412,-0.19378,-0.34417,-9.75353
18.50416,-0.19543,-0.35,-9.76176
18.5142,-0.18121,-0.34177,-9.77702
18.52423,-0.19393,-0.32741,-9.78645
18.53427,-0.18331,-0.33055,-9.77343
18.54431,-0.17942,-0.33504,-9.78735
18.55435,-0.17358,-0.32382,-9.76984
18.56438,-0.17029,-0.32786,-9.75143
18.57442,-0.19438,-0.31289,-9.77597
18.58446,-0.20845,-0.3096,-9.7664
18.5945,-0.21548,-0.29688,-9.74246
18.60453,-0.22176,-0.31708,-9.75383
18.61457,-0.23044,-0.30975,-9.77508
18.62461,-0.22446,-0.30197,-9.74994
18.63465,-0.23568,-0.29628,-9.74575
18.64468,-0.21682,-0.3084,-9.77253
18.65472,-0.22012,-0.31289,-9.7649
18.66476,-0.22416,-0.30795,-9.745
18.6748,-0.19842,-0.31903,-9.76311
18.68483,-0.20725,-0.32441,-9.75817
18.69487,-0.20111,-0.30945,-9.77178
18.70491,-0.18809,-0.31753,-9.77298
18.71495,-0.19094,-0.32771,-9.77059
18.72498,-0.1854,-0.32816,-9.76625
18.73502,-0.19064,-0.31095,-9.75697
18.74506,-0.20156,-0.30152,-9.76819
18.7551,-0.20934,-0.32262,-9.76131
18.76514,-0.19887,-0.3292,-9.76565
18.77517,-0.20186,-0.31484,-9.77133
18.78521,-0.19528,-0.32307,-9.7655
18.79525,-0.21054,-0.30376,-9.74305
18.80529,-0.21413,-0.31304,-9.75083
18.81532,-0.2264,-0.30212,-9.77373
18.82536,-0.22775,-0.30421,-9.76505
18.8354,-0.19902,-0.30541,-9.75173
18.84544,-0.20381,-0.31454,-9.7649
18.85547,-0.20336,-0.30436,-9.75877
18.86551,-0.2044,-0.31514,-9.74545
18.87555,-0.21009,-0.31125,-9.76954
18.88558,-0.21757,-0.32441,-9.7875
18.89562,-0.21413,-0.31648,-9.7661
18.90566,-0.19947,-0.30765,-9.75667
18.9157,-0.21293,-0.31304,-9.81024
18.92574,-0.21578,-0.32247,-9.7878
18.93577,-0.20246,-0.31274,-9.74979
18.94581,-0.21024,-0.3111,-9.75907
18.95585,-0.21458,-0.30646,-9.76924
18.96589,-0.22266,-0.28671,-9.75458
18.97592,-0.21623,-0.28491,-9.76879
18.98596,-0.20919,-0.29568,-9.7652
18.996,-0.19692,-0.30885,-9.76326
19.00604,-0.20111,-0.3099,-9.74335
19.01607,-0.21069,-0.31184,-9.78301
19.02611,-0.21219,-0.30795,-9.79139
19.03615,-0.20276,-0.31319,-9.75697
19.04619,-0.19827,-0.32456,-9.74964
19.05622,-0.20336,-0.33713,-9.76849
19.06626,-0.19498,-0.32217,-9.764
19.0763,-0.16445,-0.33968,-9.77418
19.08634,-0.17538,-0.33459,-9.79932
19.09637,-0.18869,-0.31678,-9.76041
19.10641,-0.18839,-0.31214,-9.73827
19.11645,-0.20051,-0.31364,-9.77687
19.12649,-0.20515,-0.32636,-9.77193
19.13652,-0.2068,-0.32516,-9.74739
19.14656,-0.21488,-0.31035,-9.76939
19.1566,-0.21817,-0.32277,-9.76999
19.16664,-0.20994,-0.31229,-9.74201
19.17667,-0.22371,-0.31304,-9.74964
19.18671,-0.21443,-0.31574,-9.75278
19.19675,-0.21443,-0.30257,-9.77193
19.20679,-0.19767,-0.30182,-9.75592
19.21683,-0.20815,-0.33145,-9.77149
19.22686,-0.20261,-0.33309,-9.77882
19.2369,-0.18869,-0.31289,-9.75293
19.24694,-0.19543,-0.32067,-9.77283
19.25698,-0.18346,-0.31933,-9.76041
19.26701,-0.20066,-0.34282,-9.75802
19.27705,-0.19333,-0.31963,-9.77478
19.28709,-0.19318,-0.32322,-9.77253
19.29712,-0.19977,-0.31693,-9.75847
19.30716,-0.21473,-0.33309,-9.74889
19.3172,-0.21234,-0.31439,-9.75592
19.32724,-0.22027,-0.31364,-9.76505
19.33728,-0.21278,-0.29942,-9.78151
19.34731,-0.2273,-0.27907,-9.74664
19.35735,-0.21009,-0.28671,-9.7257
19.36739,-0.20186,-0.2906,-9.7456
19.37743,-0.2077,-0.29374,-9.78061
19.38746,-0.20874,-0.2876,-9.75607
19.3975,-0.22161,-0.31125,-9.76475
19.40754,-0.21982,-0.31903,-9.77388
19.41758,-0.23074,-0.31005,-9.75353
19.42761,-0.22191,-0.31588,-9.74275
19.43765,-0.208,-0.33249,-9.7658
19.44769,-0.20695,-0.34147,-9.78136
19.45773,-0.19079,-0.31663,-9.75802
19.46776,-0.2083,-0.30721,-9.75113
19.4778,-0.20231,-0.32142,-9.7649
19.48784,-0.18869,-0.31184,-9.76161
19.49788,-0.20096,-0.28446,-9.767
19.50791,-0.19617,-0.30661,-9.77358
19.51795,-0.21024,-0.32726,-9.78271
19.52799,-0.21982,-0.31065,-9.76849
19.53803,-0.21682,-0.29374,-9.75113
19.54806,-0.21608,-0.31259,-9.7667
19.5581,-0.21488,-0.3286,-9.77463
19.56814,-0.21967,-0.33564,-9.75263
19.57818,-0.24989,-0.29449,-9.79423
19.58821,-0.27997,-0.27638,-9.75308
19.59825,-0.22461,-0.33279,-9.73288
19.60829,-0.15637,-0.35464,-9.71432
19.61833,-0.10385,-0.37679,-9.77373
19.62837,-0.14724,-0.33205,-9.79767
19.6384,-0.1863,-0.28072,-9.80216
19.64844,-0.21922,-0.27324,-9.78001
19.65848,-0.23104,-0.24346,-9.77298
19.66852,-0.23059,-0.30047,-9.77433
19.67855,-0.22161,-0.37978,-9.77104
19.68859,-0.23718,-0.42467,-9.77134
19.69863,-0.23239,-0.39055,-9.75128
19.70867,-0.2267,-0.3313,-9.76206
19.7187,-0.23762,-0.27833,-9.77313
19.72874,-0.23852,-0.27429,-9.75966
19.73878,-0.21458,-0.24855,-9.72794
19.74882,-0.15128,-0.27354,-9.73318
19.75885,-0.07557,-0.31334,-9.74709
19.76889,-0.0422,-0.31723,-9.75069
19.77893,-0.03307,-0.34701,-9.74156
19.78897,-0.14679,-0.31948,-9.79483
19.799,-0.28641,-0.27129,-9.77328
19.80904,-0.33833,-0.28581,-9.76415
19.81908,-0.32172,-0.29359,-9.73886
19.82912,-0.25932,-0.3705,-9.75966
19.83915,-0.23493,-0.413,-9.75996
19.84919,-0.2683,-0.38936,-9.7447
19.85923,-0.23314,-0.36781,-9.75772
19.86927,-0.20695,-0.27668,-9.75652
19.8793,-0.21069,-0.19528,-9.74859
19.88934,-0.205,-0.18989,-9.75877
19.89938,-0.20081,-0.21488,-9.77627
19.90942,-0.16011,-0.26501,-9.75069
19.91945,-0.09307,-0.32606,-9.74365
19.92949,-0.11013,-0.35524,-9.79243
19.93953,-0.17807,-0.35704,-9.77582
19.94957,-0.26441,-0.34821,-9.76774
19.9596,-0.33279,-0.32337,-9.76101
19.96964,-0.32516,-0.33504,-9.75188
19.97968,-0.27279,-0.33788,-9.77508
19.98972,-0.21533,-0.33249,-9.78076
19.99976,-0.17852,-0.35404,-9.76281
20.00979,-0.15547,-0.34222,-9.74201
20.01983,-0.15757,-0.30421,-9.75488
20.02987,-0.16505,-0.2493,-9.77283
20.03991,-0.19199,-0.19348,-9.76116
20.04994,-0.21623,-0.20725,-9.74844
20.05998,-0.22565,-0.27339,-9.76041
20.07002,-0.19872,-0.3117,-9.76969
20.08006,-0.164,-0.35689,-9.75562
20.09009,-0.18809,-0.37574,-9.77493
20.10013,-0.2475,-0.37065,-9.74799
20.11017,-0.30511,-0.32112,-9.74889
20.12021,-0.29718,-0.2906,-9.75383
20.13024,-0.26531,-0.28775,-9.78974
20.14028,-0.17134,-0.33459,-9.76415
20.15032,-0.12644,-0.35449,-9.77867
20.16036,-0.11088,-0.34312,-9.76969
20.17039,-0.14201,-0.31888,-9.78091
20.18043,-0.16834,-0.26576,-9.75428
20.19047,-0.20141,-0.24122,-9.75173
20.20051,-0.23403,-0.23194,-9.75787
20.21054,-0.24705,-0.26635,-9.7661
20.22058,-0.23014,-0.34641,-9.76131
20.23062,-0.21712,-0.36871,-9.75832
20.24066,-0.22042,-0.35659,-9.75862
20.25069,-0.22939,-0.34596,-9.76655
20.26073,-0.24945,-0.31155,-9.75458
20.27077,-0.26606,-0.29045,-9.75203
20.28081,-0.22072,-0.28177,-9.76984
20.29084,-0.17223,-0.29479,-9.76864
20.30088,-0.15128,-0.32771,-9.78331
20.31092,-0.13138,-0.32576,-9.77852
20.32096,-0.15622,-0.3114,-9.77074
20.33099,-0.18031,-0.29703,-9.75996
20.34103,-0.22655,-0.28371,-9.75981
20.35107,-0.25079,-0.27773,-9.76146
20.36111,-0.24825,-0.29284,-9.75009
20.37114,-0.24391,-0.3292,-9.75338
20.38118,-0.22206,-0.34671,-9.76236
20.39122,-0.21802,-0.34776,-9.75667
20.40126,-0.20665,-0.32771,-9.7459
20.4113,-0.21518,-0.31035,-9.76535
20.42133,-0.20007,-0.28282,-9.77582
20.43137,-0.21099,-0.2704,-9.7649
20.44141,-0.18854,-0.28476,-9.75009
20.45145,-0.17702,-0.30556,-9.76879
20.46148,-0.15832,-0.31499,-9.77957
20.47152,-0.17268,-0.31319,-9.76715
20.48156,-0.20396,-0.32666,-9.74081
20.4916,-0.25663,-0.32397,-9.76191
20.50163,-0.27459,-0.29703,-9.77582
20.51167,-0.24795,-0.2879,-9.75173
20.52171,-0.23987,-0.31289,-9.76116
20.53175,-0.20455,-0.3283,-9.75383
20.54178,-0.18884,-0.33489,-9.7453
20.55182,-0.18106,-0.32531,-9.76939
20.56186,-0.18615,-0.30646,-9.77867
20.5719,-0.19154,-0.29299,-9.75069
20.58193,-0.19812,-0.28042,-9.75413
20.59197,-0.20171,-0.28446,-9.78361
20.60201,-0.19543,-0.29164,-9.77283
20.61205,-0.19737,-0.31798,-9.75921
20.62208,-0.20306,-0.33713,-9.75488
20.63212,-0.21338,-0.32501,-9.75996
20.64216,-0.22206,-0.31005,-9.75592
20.6522,-0.25379,-0.30721,-9.75682
20.66223,-0.23044,-0.30077,-9.764
20.67227,-0.2083,-0.29464,-9.76236
20.68231,-0.18705,-0.31499,-9.7658
20.69235,-0.18076,-0.3289,-9.76311
20.70238,-0.18286,-0.32591,-9.77508
20.71242,-0.18839,-0.29928,-9.76116
20.72246,-0.20859,-0.2903,-9.77657
20.7325,-0.21428,-0.2888,-9.77433
20.74253,-0.22446,-0.29883,-9.74709
20.75257,-0.21219,-0.3114,-9.75847
20.76261,-0.2068,-0.32007,-9.786
20.77265,-0.20904,-0.33998,-9.76206
20.78268,-0.21967,-0.32307,-9.76101
20.79272,-0.22221,-0.30361,-9.75951
20.80276,-0.21428,-0.29673,-9.77882
20.8128,-0.21982,-0.29957,-9.77478
20.82283,-0.20904,-0.30646,-9.74949
20.83287,-0.19378,-0.31648,-9.74665
20.84291,-0.18331,-0.32666,-9.77642
20.85295,-0.19318,-0.31424,-9.76281
20.86298,-0.19827,-0.32426,-9.74694
20.87302,-0.21323,-0.31633,-9.75652
20.88306,-0.23358,-0.30736,-9.76655
20.8931,-0.23029,-0.29957,-9.76894
20.90314,-0.2267,-0.28835,-9.76071
20.91317,-0.19947,-0.32412,-9.75592
20.92321,-0.18735,-0.30765,-9.74979
20.93325,-0.19707,-0.30706,-9.76984
20.94328,-0.205,-0.31125,-9.7664
20.95332,-0.2074,-0.3105,-9.76445
20.96336,-0.20396,-0.30855,-9.74919
20.9734,-0.21817,-0.30406,-9.75921
20.98344,-0.205,-0.29763,-9.7664
20.99347,-0.19139,-0.32172,-9.75847
21.00414,-0.19213,-0.32352,-9.78989
21.01418,-0.19064,-0.30631,-9.77552
21.02421,-0.20381,-0.31738,-9.74694
21.03425,-0.21159,-0.30332,-9.76041
21.04429,-0.22461,-0.30167,-9.7634
21.05433,-0.21967,-0.29673,-9.78046
21.06436,-0.20291,-0.31005,-9.75487
21.0744,-0.19632,-0.31768,-9.74874
21.08444,-0.20066,-0.32516,-9.74814
21.09448,-0.19662,-0.30795,-9.76715
21.10451,-0.20815,-0.29045,-9.76819
21.11455,-0.20201,-0.30646,-9.78046
21.12459,-0.20381,-0.31214,-9.75113
21.13463,-0.21623,-0.31544,-9.74081
21.14466,-0.2059,-0.31364,-9.77493
21.1547,-0.20051,-0.31588,-9.77298
21.16474,-0.20291,-0.3099,-9.74934
21.17478,-0.19887,-0.32516,-9.76011
21.18481,-0.22266,-0.30511,-9.77313
21.19485,-0.2273,-0.2885,-9.75966
21.20489,-0.21114,-0.30631,-9.76161
21.21493,-0.19977,-0.31663,-9.77463
21.22496,-0.20186,-0.31484,-9.76311
21.235,-0.20889,-0.30227,-9.7438
21.24504,-0.19632,-0.31633,-9.77717
21.25508,-0.20036,-0.31843,-9.76894
21.26511,-0.21383,-0.29419,-9.7438
21.27515,-0.21802,-0.29808,-9.75473
21.28519,-0.20635,-0.3111,-9.7857
21.29523,-0.20426,-0.30182,-9.75502
21.30526,-0.19797,-0.30676,-9.75263
21.3153,-0.20455,-0.31484,-9.78166
21.32534,-0.21219,-0.30466,-9.75907
21.33538,-0.21204,-0.3087,-9.73318
21.34541,-0.21473,-0.31603,-9.7863
21.35545,-0.22087,-0.31095,-9.78121
21.36549,-0.21608,-0.30855,-9.74605
21.37553,-0.2077,-0.31603,-9.77133
21.38557,-0.19917,-0.31603,-9.78914
21.3956,-0.21039,-0.30406,-9.77283
21.40564,-0.19707,-0.30616,-9.75682
21.41568,-0.20635,-0.32142,-9.75742
21.42572,-0.21084,-0.3093,-9.76774
21.43575,-0.20545,-0.30017,-9.74859
21.44579,-0.21443,-0.30691,-9.77014
21.45583,-0.2074,-0.33354,-9.77762
21.46587,-0.20515,-0.31409,-9.7664
21.4759,-0.21084,-0.3102,-9.75263
21.48594,-0.20919,-0.30945,-9.76535
21.49598,-0.20994,-0.30436,-9.79887
21.50602,-0.2065,-0.28147,-9.76026
21.51605,-0.21159,-0.30017,-9.73228
21.52609,-0.19363,-0.30272,-9.77343
21.53613,-0.19752,-0.31035,-9.76849
21.54617,-0.19677,-0.30032,-9.75592
21.5562,-0.21009,-0.30421,-9.75877
21.56624,-0.22296,-0.31484,-9.75024
21.57628,-0.20904,-0.3102,-9.74275
21.58632,-0.20515,-0.30017,-9.78585
21.59635,-0.20306,-0.30676,-9.81593
21.60639,-0.21129,-0.3298,-9.74485
21.61643,-0.20111,-0.32187,-9.726
21.62647,-0.19333,-0.3084,-9.76759
21.6365,-0.18675,-0.29957,-9.7869
21.64654,-0.1872,-0.29,-9.7667
21.65658,-0.20246,-0.30376,-9.75503
21.66662,-0.20111,-0.31319,-9.75098
21.67666,-0.20201,-0.31199,-9.75877
21.68732,-0.20201,-0.31199,-9.75877
21.69736,-0.2077,-0.309,-9.74216
21.7074,-0.208,-0.31828,-9.75832
21.71743,-0.21668,-0.30616,-9.76445
21.72747,-0.21697,-0.30436,-9.76954
21.73751,-0.21668,-0.31888,-9.78824
21.74755,-0.20515,-0.33115,-9.75862
21.75758,-0.20859,-0.30706,-9.75368
21.76762,-0.19962,-0.29628,-9.79647
21.77766,-0.20575,-0.30616,-9.767
21.7877,-0.20979,-0.30556,-9.73916
21.79773,-0.21278,-0.30317,-9.75832
21.80777,-0.20111,-0.29434,-9.767
21.81781,-0.21398,-0.29329,-9.76939
21.82785,-0.18226,-0.31843,-9.75248
21.83788,-0.19647,-0.3084,-9.7429
21.84792,-0.21263,-0.30347,-9.76116
21.85796,-0.21383,-0.3099,-9.7854
21.868,-0.19797,-0.32112,-9.764
21.87803,-0.20635,-0.33639,-9.76086
21.88807,-0.19902,-0.32756,-9.77927
21.89811,-0.20605,-0.31229,-9.76789
21.90815,-0.2083,-0.31035,-9.75428
21.91818,-0.20081,-0.31349,-9.76655
21.92822,-0.21009,-0.3078,-9.77672
21.93826,-0.20545,-0.29778,-9.75084
21.9483,-0.2059,-0.29838,-9.75517
21.95833,-0.19288,-0.30421,-9.77238
21.96837,-0.2053,-0.29224,-9.75158
21.97841,-0.20336,-0.30361,-9.73767
21.98845,-0.21323,-0.31813,-9.76789
21.99848,-0.20994,-0.32531,-9.77568
22.00852,-0.21892,-0.31379,-9.76685
22.01856,-0.21338,-0.31813,-9.76101
22.0286,-0.21877,-0.331,-9.76894
22.03863,-0.20889,-0.3304,-9.75652
22.04867,-0.21413,-0.32426,-9.76161
22.05871,-0.2074,-0.3111,-9.78391
22.06875,-0.20426,-0.32412,-9.7634
22.07879,-0.20366,-0.31379,-9.74545
22.08882,-0.18854,-0.31155,-9.76385
22.09886,-0.19184,-0.30152,-9.7848
22.1089,-0.19558,-0.30616,-9.77268
22.11894,-0.19094,-0.31469,-9.74605
22.12897,-0.2053,-0.31379,-9.75413
22.13901,-0.20889,-0.30347,-9.76206
22.14905,-0.21952,-0.30242,-9.77418
22.15909,-0.21862,-0.3111,-9.75203
22.16912,-0.22595,-0.32412,-9.75188
22.17916,-0.21308,-0.32322,-9.77972
22.1892,-0.20934,-0.30242,-9.77657
22.19924,-0.2071,-0.30287,-9.75203
22.20927,-0.19962,-0.31095,-9.76296
22.21931,-0.20994,-0.31678,-9.77523
22.22935,-0.19677,-0.29045,-9.75697
22.23939,-0.19468,-0.29314,-9.75278
22.24942,-0.19812,-0.31648,-9.74994
22.25946,-0.21189,-0.32741,-9.79932
22.2695,-0.21742,-0.28745,-9.77912
22.27954,-0.21548,-0.29179,-9.71971
22.28957,-0.22146,-0.33624,-9.71657
22.29961,-0.20485,-0.3307,-9.79468
22.30965,-0.21129,-0.27952,-9.77178
22.31969,-0.22101,-0.28671,-9.76041
22.32972,-0.21308,-0.33983,-9.76565
22.33976,-0.20066,-0.33115,-9.76101
22.3498,-0.1839,-0.29,-9.74919
22.35984,-0.20321,-0.28027,-9.78106
22.36987,-0.21204,-0.31918,-9.77478
22.37991,-0.19662,-0.33549,-9.74275
22.38995,-0.20156,-0.30945,-9.76774
22.39999,-0.18435,-0.29643,-9.79184
22.41002,-0.1872,-0.33324,-9.74994
22.42006,-0.20934,-0.34417,-9.7637
22.4301,-0.21189,-0.3304,-9.79528
22.44014,-0.21578,-0.29284,-9.77178
22.45017,-0.20845,-0.31125,-9.74814
22.46021,-0.21114,-0.34192,-9.76774
22.47025,-0.2056,-0.29972,-9.7673
22.48029,-0.21653,-0.26995,-9.74335
22.49033,-0.22146,-0.28715,-9.77253
22.50036,-0.21458,-0.31454,-9.77448
22.5104,-0.21114,-0.29,-9.7459
22.52044,-0.21204,-0.2888,-9.75697
22.53048,-0.21234,-0.31319,-9.77298
22.54051,-0.21308,-0.32007,-9.77313
22.55055,-0.21323,-0.31574,-9.7453
22.56059,-0.20426,-0.3283,-9.73782
22.57063,-0.2071,-0.32142,-9.77762
22.58066,-0.21129,-0.32501,-9.7658
22.5907,-0.20396,-0.32022,-9.74425
22.60074,-0.21832,-0.31618,-9.73378
22.61078,-0.19213,-0.31813,-9.77328
22.62081,-0.186,-0.30616,-9.78106
22.63085,-0.18884,-0.29673,-9.75428
22.64089,-0.20126,-0.30765,-9.76415
22.65093,-0.19662,-0.29853,-9.7664
22.66096,-0.21937,-0.29568,-9.77717
22.671,-0.23209,-0.29523,-9.77059
22.68104,-0.22027,-0.29419,-9.75084
22.69108,-0.21787,-0.32082,-9.76011
22.70111,-0.22476,-0.30915,-9.76879
22.71115,-0.21443,-0.31244,-9.75592
22.72119,-0.21099,-0.30691,-9.7432
22.73123,-0.20306,-0.32591,-9.77178
22.74126,-0.21069,-0.30765,-9.77478
22.7513,-0.18884,-0.29314,-9.74904
22.76134,-0.1872,-0.31648,-9.75547
22.77138,-0.19004,-0.32965,-9.7842
22.78141,-0.1872,-0.32726,-9.76655
22.79145,-0.1869,-0.3099,-9.75637
22.80149,-0.20426,-0.32022,-9.77343
22.81153,-0.2074,-0.33085,-9.75996
22.82156,-0.19632,-0.309,-9.75413
22.8316,-0.21802,-0.29942,-9.77134
22.84164,-0.20994,-0.30406,-9.76759
22.85168,-0.21862,-0.3105,-9.75428
22.86171,-0.21488,-0.29389,-9.77223
22.87175,-0.21264,-0.29015,-9.76236
22.88179,-0.20306,-0.3081,-9.76894
22.89183,-0.20246,-0.31648,-9.76026
22.90187,-0.20605,-0.30227,-9.75772
22.9119,-0.19797,-0.30691,-9.76924
22.92194,-0.19962,-0.32217,-9.76311
22.93198,-0.19243,-0.31813,-9.79483
22.94202,-0.21069,-0.31708,-9.75772
22.95205,-0.19049,-0.31544,-9.75921
22.96209,-0.20321,-0.31663,-9.76759
22.97213,-0.20216,-0.31319,-9.7664
22.98217,-0.19932,-0.32232,-9.75413
22.9922,-0.20336,-0.30511,-9.76879
23.00224,-0.20186,-0.29898,-9.76475
23.01228,-0.20411,-0.29254,-9.75697
23.02232,-0.21533,-0.2879,-9.75921
23.03235,-0.21757,-0.28012,-9.76071
23.04239,-0.23224,-0.2701,-9.76804
23.05243,-0.22431,-0.29269,-9.77134
23.06247,-0.22221,-0.29853,-9.74964
23.0725,-0.21922,-0.31888,-9.74814
23.08254,-0.21772,-0.33504,-9.77313
23.09258,-0.21458,-0.32202,-9.78944
23.10262,-0.20171,-0.31918,-9.77283
23.11265,-0.19842,-0.31648,-9.74515
23.12269,-0.19213,-0.33369,-9.75263
23.13273,-0.16505,-0.31933,-9.77343
23.14277,-0.17388,-0.31544,-9.77178
23.1528,-0.15921,-0.32052,-9.76176
23.16284,-0.18106,-0.32681,-9.75637
23.17288,-0.18899,-0.31993,-9.77343
23.18292,-0.20036,-0.29883,-9.76715
23.19295,-0.22296,-0.29658,-9.75712
23.20299,-0.23074,-0.30077,-9.76206
23.21303,-0.23104,-0.30182,-9.75667
23.22307,-0.23628,-0.30466,-9.74694
23.2331,-0.23418,-0.30092,-9.76535
23.24314,-0.23882,-0.31618,-9.76191
23.25318,-0.24286,-0.31603,-9.75682
23.26322,-0.22446,-0.30406,-9.75188
23.27326,-0.2261,-0.32037,-9.73482
23.28329,-0.21787,-0.33115,-9.77178
23.29333,-0.1854,-0.32666,-9.78899
23.30337,-0.17672,-0.30975,-9.76969
23.31341,-0.16146,-0.33519,-9.76266
23.32344,-0.14814,-0.36108,-9.79184
23.33348,-0.15188,-0.35255,-9.79483
23.34352,-0.15877,-0.33624,-9.78136
23.35356,-0.15877,-0.33444,-9.77493
23.36359,-0.1655,-0.34462,-9.79169
23.37363,-0.17657,-0.31903,-9.75787
23.38367,-0.20455,-0.28835,-9.7456
23.39371,-0.23014,-0.2885,-9.75996
23.40374,-0.24092,-0.29404,-9.75921
23.41378,-0.26022,-0.27743,-9.76026
23.42382,-0.25214,-0.27653,-9.73946
23.43386,-0.25423,-0.30646,-9.74425
23.44389,-0.25498,-0.30272,-9.73183
23.45393,-0.24915,-0.29329,-9.74186
23.46397,-0.22281,-0.28566,-9.76475
23.47401,-0.21518,-0.31319,-9.79139
23.48404,-0.20845,-0.30975,-9.7646
23.49408,-0.19258,-0.3078,-9.75532
23.50412,-0.18555,-0.34028,-9.77328
23.51416,-0.1631,-0.35584,-9.7845
23.52419,-0.1462,-0.35928,-9.76864
23.53423,-0.13273,-0.37544,-9.77732
23.54427,-0.13213,-0.35374,-9.79647
23.55431,-0.16355,-0.35195,-9.77687
23.56434,-0.17807,-0.34821,-9.76954
23.57438,-0.18809,-0.32816,-9.77912
23.58442,-0.20845,-0.34117,-9.76954
23.59446,-0.21503,-0.35509,-9.76266
23.6045,-0.21069,-0.36108,-9.76685
23.61453,-0.19947,-0.33653,-9.75143
23.62457,-0.20156,-0.32022,-9.74081
23.63461,-0.22805,-0.28267,-9.74919
23.64465,-0.24376,-0.24181,-9.7634
23.65468,-0.26725,-0.23912,-9.767
23.66472,-0.25289,-0.22176,-9.73198
23.67476,-0.24481,-0.2463,-9.71672
23.6848,-0.23598,-0.27833,-9.71298
23.69483,-0.22745,-0.27623,-9.74964
23.70487,-0.23658,-0.26351,-9.75024
23.71491,-0.24062,-0.2882,-9.76385
23.72495,-0.25049,-0.3081,-9.75473
23.73498,-0.23314,-0.31813,-9.75009
23.74502,-0.19992,-0.31933,-9.74799
23.75506,-0.18989,-0.35524,-9.80171
23.7651,-0.16415,-0.34895,-9.79677
23.77513,-0.16056,-0.35584,-9.74889
23.78517,-0.14635,-0.36197,-9.75637
23.79521,-0.13812,-0.34806,-9.7872
23.80525,-0.15383,-0.32711,-9.78301
23.81528,-0.17538,-0.31693,-9.75218
23.82532,-0.19887,-0.34147,-9.75592
23.83536,-0.19468,-0.33773,-9.78645
23.8454,-0.2071,-0.31334,-9.78405
23.85543,-0.22446,-0.32217,-9.77029
23.86547,-0.23568,-0.3295,-9.75517
23.87551,-0.25528,-0.31349,-9.73258
23.88555,-0.26351,-0.29733,-9.74724
23.89558,-0.24481,-0.27354,-9.764
23.90562,-0.21697,-0.268,-9.75862
23.91566,-0.20246,-0.28222,-9.76116
23.9257,-0.19004,-0.27788,-9.75936
23.93573,-0.20051,-0.27593,-9.75353
23.94577,-0.17867,-0.29898,-9.75293
23.95581,-0.17163,-0.32337,-9.75921
23.96585,-0.1863,-0.31993,-9.76849
23.97589,-0.20022,-0.31798,-9.78016
23.98592,-0.20426,-0.31948,-9.76685
23.99596,-0.21234,-0.35419,-9.75607
24.006,-0.20605,-0.35868,-9.76475
24.01604,-0.2083,-0.34282,-9.75098
24.02607,-0.21608,-0.33998,-9.75622
24.03611,-0.21608,-0.32352,-9.76131
24.04615,-0.22161,-0.31065,-9.78286
24.05619,-0.20575,-0.27803,-9.73961
24.06622,-0.21473,-0.27578,-9.74111
24.07626,-0.20605,-0.27264,-9.7426
24.0863,-0.19872,-0.25768,-9.74635
24.09634,-0.21458,-0.24855,-9.72644
24.10637,-0.2261,-0.25633,-9.73288
24.11641,-0.23448,-0.2903,-9.7658
24.12645,-0.23478,-0.31963,-9.78331
24.13649,-0.23807,-0.34477,-9.77119
24.14652,-0.23284,-0.36556,-9.76131
24.15656,-0.20919,-0.38292,-9.76011
24.1666,-0.20246,-0.37469,-9.76505
24.17664,-0.16789,-0.3509,-9.79543
24.18667,-0.14874,-0.35135,-9.80156
24.19671,-0.13572,-0.3301,-9.78196
24.20675,-0.14919,-0.32007,-9.75532
24.21679,-0.15128,-0.30182,-9.77657
24.22682,-0.14021,-0.28686,-9.78435
24.23686,-0.15697,-0.28147,-9.75248
24.2469,-0.18615,-0.30242,-9.74709
24.25694,-0.22476,-0.30526,-9.77313
24.26697,-0.23658,-0.28461,-9.74305
24.27701,-0.23852,-0.31738,-9.74201
24.28705,-0.23718,-0.32352,-9.76774
24.29709,-0.26007,-0.31394,-9.76131
24.30713,-0.2493,-0.31693,-9.75233
24.31716,-0.23912,-0.34551,-9.76445
24.3272,-0.22027,-0.34372,-9.75817
24.33724,-0.18914,-0.32382,-9.73871
24.34728,-0.14874,-0.32007,-9.77388
24.35731,-0.14096,-0.3108,-9.79647
24.36735,-0.15443,-0.30347,-9.75473
24.37739,-0.16071,-0.30646,-9.73976
24.38743,-0.17627,-0.31588,-9.77702
24.39746,-0.19363,-0.30391,-9.7863
24.4075,-0.20396,-0.30631,-9.75413
24.41754,-0.22116,-0.3289,-9.73752
24.42758,-0.23104,-0.33414,-9.76445
24.43761,-0.24107,-0.3283,-9.7637
24.44765,-0.23867,-0.30451,-9.76625
24.45769,-0.26082,-0.31005,-9.75293
24.46773,-0.24735,-0.31633,-9.75921
24.47776,-0.2267,-0.30167,-9.77104
24.4878,-0.19617,-0.29688,-9.78091
24.49784,-0.1649,-0.31035,-9.75577
24.50788,-0.15502,-0.32127,-9.77298
24.51791,-0.14515,-0.31738,-9.78121
24.52795,-0.16325,-0.30586,-9.77193
24.53799,-0.164,-0.32486,-9.78854
24.54803,-0.17777,-0.34491,-9.77104
24.55806,-0.19438,-0.35629,-9.75218
24.5681,-0.19662,-0.34656,-9.77268
24.57814,-0.205,-0.36257,-9.78675
24.58818,-0.21668,-0.34521,-9.78196
24.59821,-0.22027,-0.34043,-9.73916
24.60825,-0.21952,-0.33668,-9.74979
24.61829,-0.22625,-0.30765,-9.83119
24.62833,-0.22625,-0.25872,-9.78046
24.63836,-0.22236,-0.27907,-9.68933
24.6484,-0.21278,-0.30002,-9.73213
24.65844,-0.19169,-0.29464,-9.77867
24.66848,-0.18181,-0.25887,-9.75981
24.67851,-0.19333,-0.26905,-9.76146
24.68855,-0.19273,-0.31828,-9.7664
24.69859,-0.22371,-0.28521,-9.75398
24.70863,-0.21338,-0.26636,-9.7254
24.71866,-0.2068,-0.31065,-9.76655
24.7287,-0.21802,-0.34312,-9.78241
24.73874,-0.21009,-0.36167,-9.75143
24.74878,-0.19752,-0.3319,-9.77328
24.75881,-0.21922,-0.31993,-9.76879
24.76885,-0.21518,-0.33953,-9.7459
24.77889,-0.21832,-0.30885,-9.75323
24.78893,-0.19797,-0.29494,-9.79498
24.79897,-0.20051,-0.29883,-9.75832
24.809,-0.19573,-0.31184,-9.73557
24.81904,-0.19019,-0.32531,-9.77089
24.82908,-0.17971,-0.28162,-9.7854
24.83912,-0.17343,-0.27369,-9.75308
24.84915,-0.20964,-0.30616,-9.74201
24.85919,-0.23074,-0.30496,-9.7845
24.86923,-0.22461,-0.30242,-9.77328
24.87927,-0.21398,-0.3099,-9.73333
24.8893,-0.22685,-0.3286,-9.76086
24.89934,-0.21578,-0.34028,-9.7673
24.90938,-0.22116,-0.33534,-9.75054
24.91942,-0.21159,-0.31035,-9.76894
24.92945,-0.2047,-0.31813,-9.767
24.93949,-0.18824,-0.30691,-9.7435
24.94953,-0.17552,-0.27548,-9.77807
24.95957,-0.17343,-0.28656,-9.79468
24.9696,-0.1866,-0.29299,-9.74784
24.97964,-0.19303,-0.33639,-9.73647
24.98968,-0.18196,-0.33489,-9.77597
24.99972,-0.21802,-0.31379,-9.76879
25.01038,-0.21802,-0.31379,-9.76879
25.02042,-0.23718,-0.33279,-9.75742
25.03046,-0.24107,-0.32352,-9.75443
25.04049,-0.22476,-0.31439,-9.77433
25.05053,-0.20426,-0.32022,-9.77957
25.06057,-0.19603,-0.32157,-9.7664
25.07061,-0.18959,-0.31289,-9.73662
25.08064,-0.19558,-0.28745,-9.76266
25.09068,-0.19872,-0.2701,-9.79468
25.10072,-0.18884,-0.26935,-9.75383
25.11076,-0.19707,-0.29763,-9.74066
25.12079,-0.20306,-0.30541,-9.77657
25.13083,-0.21533,-0.31214,-9.78839
25.14087,-0.23373,-0.32067,-9.7456
25.15091,-0.22371,-0.33848,-9.74275
25.16094,-0.2255,-0.34806,-9.78271
25.17098,-0.22341,-0.33923,-9.76834
25.18102,-0.22969,-0.32501,-9.77283
25.19106,-0.21727,-0.34686,-9.79169
25.20109,-0.19004,-0.34686,-9.77283
25.21113,-0.16655,-0.33639,-9.74275
25.22117,-0.14425,-0.32217,-9.78331
25.23121,-0.16804,-0.3286,-9.79288
25.24125,-0.17029,-0.32067,-9.75218
25.25128,-0.18121,-0.30077,-9.74949
25.26132,-0.20096,-0.29898,-9.77687
25.27136,-0.19064,-0.3087,-9.7673
25.2814,-0.19902,-0.31199,-9.73871
25.29143,-0.21413,-0.31544,-9.76774
25.30147,-0.23164,-0.30795,-9.76894
25.31151,-0.24316,-0.31289,-9.7438
25.32155,-0.24256,-0.30287,-9.73078
25.33158,-0.25184,-0.29509,-9.76296
25.34162,-0.23747,-0.28581,-9.7664
25.35166,-0.22072,-0.26875,-9.75892
25.3617,-0.21368,-0.30212,-9.75637
25.37173,-0.1839,-0.3111,-9.75368
25.38177,-0.16999,-0.30257,-9.75323
25.39181,-0.18151,-0.30945,-9.76565
25.40185,-0.18181,-0.31274,-9.76146
25.41188,-0.20007,-0.33414,-9.75413
25.42192,-0.19977,-0.33429,-9.77208
25.43196,-0.19543,-0.32157,-9.76565
25.442,-0.2059,-0.32546,-9.78405
25.45203,-0.20485,-0.34955,-9.77852
25.46207,-0.205,-0.34222,-9.76505
25.47211,-0.21024,-0.30526,-9.74545
25.48215,-0.20695,-0.30152,-9.7652
25.49218,-0.21653,-0.30765,-9.77478
25.50222,-0.22057,-0.28536,-9.74665
25.51226,-0.19827,-0.29419,-9.76774
25.5223,-0.2062,-0.28192,-9.77268
25.53233,-0.19573,-0.29703,-9.74904
25.54237,-0.18585,-0.30496,-9.74694
25.55241,-0.21159,-0.30227,-9.75547
25.56245,-0.21323,-0.30212,-9.78331
25.57248,-0.20979,-0.30451,-9.75473
25.58252,-0.21428,-0.3111,-9.76415
25.59256,-0.21772,-0.3295,-9.76071
25.6026,-0.20665,-0.31798,-9.75383
25.61264,-0.20785,-0.31993,-9.78091
25.62267,-0.20411,-0.32995,-9.78525
25.63271,-0.21204,-0.31768,-9.77328
25.64275,-0.19169,-0.30526,-9.75398
25.65279,-0.20141,-0.3096,-9.75832
25.66282,-0.19049,-0.31903,-9.78256
25.67286,-0.19827,-0.30376,-9.75263
25.68353,-0.19827,-0.30376,-9.75263
25.69356,-0.19632,-0.3081,-9.77373
25.7036,-0.21383,-0.30227,-9.75832
25.71364,-0.20635,-0.2888,-9.74335
25.72368,-0.22251,-0.31618,-9.745
25.73371,-0.2261,-0.32337,-9.76056
25.74375,-0.21428,-0.3081,-9.75398
25.75379,-0.21338,-0.31708,-9.75802
25.76383,-0.2059,-0.32486,-9.76161
25.77386,-0.19348,-0.32576,-9.76161
25.7839,-0.20665,-0.30556,-9.76715
25.79394,-0.205,-0.32516,-9.76879
25.80398,-0.19408,-0.32441,-9.75547
25.81402,-0.19632,-0.31663,-9.76251
25.82405,-0.19662,-0.31559,-9.7667
25.83409,-0.20575,-0.3114,-9.77927
25.84413,-0.21742,-0.30676,-9.7646
25.85416,-0.20201,-0.31633,-9.74994
25.8642,-0.19932,-0.30212,-9.77762
25.87424,-0.20665,-0.3117,-9.75607
25.88428,-0.2056,-0.30736,-9.77268
25.89431,-0.20545,-0.32516,-9.75473
25.90435,-0.21533,-0.30646,-9.75757
25.91439,-0.20919,-0.30751,-9.76206
25.92443,-0.21054,-0.31439,-9.76909
25.93446,-0.19603,-0.31753,-9.75188
25.9445,-0.21937,-0.3102,-9.75532
25.95454,-0.21653,-0.29838,-9.7646
25.96458,-0.20665,-0.30167,-9.77657
25.97462,-0.2047,-0.30167,-9.77044
25.98465,-0.19842,-0.30915,-9.74709
25.99469,-0.19498,-0.32022,-9.75847
26.00473,-0.20545,-0.29688,-9.77014
26.01477,-0.19543,-0.30032,-9.76326
26.0248,-0.2056,-0.30137,-9.76715
26.03484,-0.22446,-0.30257,-9.76864
26.04488,-0.21204,-0.32142,-9.77149
26.05492,-0.22565,-0.31229,-9.75413
26.06495,-0.21608,-0.32337,-9.77268
26.07499,-0.20949,-0.32217,-9.76804
26.08503,-0.19588,-0.31155,-9.75577
26.09507,-0.20695,-0.30646,-9.76176
26.1051,-0.20336,-0.30736,-9.7646
26.11514,-0.20261,-0.31574,-9.78316
26.12518,-0.20126,-0.29718,-9.76789
26.13522,-0.18061,-0.29105,-9.7637
26.14525,-0.18824,-0.3108,-9.75338
26.15529,-0.19872,-0.32367,-9.76355
26.16533,-0.21368,-0.31993,-9.77328
26.17537,-0.19917,-0.30855,-9.75966
26.1854,-0.20859,-0.32905,-9.75682
26.19544,-0.21847,-0.33668,-9.76041
26.20548,-0.21234,-0.31514,-9.77433
26.21552,-0.20485,-0.29763,-9.78286
26.22555,-0.20081,-0.30182,-9.77657
26.23559,-0.21159,-0.31768,-9.77388
26.24563,-0.19812,-0.30721,-9.74949
26.25567,-0.19603,-0.30347,-9.75772
26.26571,-0.20111,-0.30631,-9.76879
26.27574,-0.20336,-0.29883,-9.76595
26.28578,-0.20994,-0.30361,-9.75802
26.29582,-0.21892,-0.31723,-9.76969
26.30585,-0.20874,-0.30526,-9.76296
26.31589,-0.2068,-0.31678,-9.77134
26.32593,-0.22221,-0.31514,-9.75742
26.33597,-0.21697,-0.29718,-9.77597
26.34601,-0.2047,-0.30825,-9.78181
26.35604,-0.19977,-0.31768,-9.74919
26.36608,-0.19932,-0.30915,-9.73423
26.37612,-0.20156,-0.31394,-9.76909
26.38616,-0.20396,-0.30825,-9.78376
26.39619,-0.1866,-0.30646,-9.75323
26.40623,-0.19483,-0.3099,-9.76176
26.41627,-0.2047,-0.31184,-9.74814
26.42631,-0.19199,-0.309,-9.76266
26.43634,-0.19243,-0.29972,-9.78286
26.44638,-0.2047,-0.31783,-9.76505
26.45642,-0.19887,-0.33429,-9.7453
26.46646,-0.20545,-0.3283,-9.76415
26.47649,-0.21982,-0.32576,-9.7878
26.48653,-0.21039,-0.30511,-9.75697
26.49657,-0.22027,-0.32007,-9.73752
26.50661,-0.21503,-0.31244,-9.75293
26.51664,-0.20904,-0.30062,-9.77582
26.52668,-0.20336,-0.30302,-9.75892
26.53672,-0.19573,-0.30406,-9.75158
26.54676,-0.20635,-0.30436,-9.76565
26.5568,-0.208,-0.29613,-9.76415
26.56683,-0.20755,-0.29209,-9.75862
26.57687,-0.21069,-0.31394,-9.77029
26.58691,-0.20111,-0.31978,-9.75667
26.59694,-0.20859,-0.31529,-9.7661
26.60698,-0.21234,-0.31469,-9.77178
26.61702,-0.21398,-0.31514,-9.76505
26.62706,-0.21638,-0.32546,-9.76999
26.63709,-0.20994,-0.32322,-9.76685
26.64713,-0.20231,-0.30945,-9.7634
26.65717,-0.19303,-0.31588,-9.76041
26.66721,-0.19767,-0.31633,-9.75368
26.67724,-0.18989,-0.31783,-9.75727
26.68728,-0.19647,-0.29329,-9.76355
26.69732,-0.20426,-0.30332,-9.75248
26.70736,-0.21503,-0.30002,-9.75577
26.7174,-0.21264,-0.30556,-9.7634
26.72743,-0.21937,-0.30556,-9.77687
26.73747,-0.22999,-0.3108,-9.76744
26.74751,-0.21234,-0.309,-9.77717
26.75755,-0.20904,-0.29957,-9.75667
26.76758,-0.20725,-0.31155,-9.74874
26.77762,-0.21278,-0.31813,-9.77104
26.78766,-0.20665,-0.32352,-9.76655
26.7977,-0.20096,-0.30601,-9.74964
26.80773,-0.18585,-0.31544,-9.74919
26.81777,-0.164,-0.32022,-9.77508
26.82781,-0.1857,-0.31768,-9.76909
26.83785,-0.18226,-0.32905,-9.77163
26.84788,-0.18495,-0.34357,-9.77418
26.85792,-0.18405,-0.31544,-9.767
26.86796,-0.20216,-0.30332,-9.74784
26.878,-0.21608,-0.31454,-9.74395
26.88803,-0.22745,-0.31618,-9.77867
26.89807,-0.24166,-0.29105,-9.74859
26.90811,-0.22595,-0.28775,-9.75218
26.91815,-0.2285,-0.32127,-9.74784
26.92819,-0.21997,-0.31125,-9.74186
26.93822,-0.21144,-0.29194,-9.76475
26.94826,-0.21787,-0.29,-9.77627
26.9583,-0.19213,-0.30212,-9.75637
26.96833,-0.1875,-0.30406,-9.74904
26.97837,-0.19752,-0.31618,-9.77358
26.98841,-0.20216,-0.3117,-9.77553
26.99845,-0.1863,-0.30885,-9.76954
27.00848,-0.19273,-0.32232,-9.76804
27.01852,-0.19483,-0.32082,-9.77014
27.02856,-0.19827,-0.32591,-9.76864
27.0386,-0.20351,-0.32501,-9.75936
27.04864,-0.20051,-0.33085,-9.78376
27.05867,-0.19782,-0.331,-9.75637
27.06871,-0.20515,-0.32007,-9.75892
27.07875,-0.22116,-0.30541,-9.7857
27.08879,-0.2062,-0.29733,-9.77358
27.09882,-0.20575,-0.2909,-9.73797
27.10886,-0.22431,-0.28686,-9.74246
27.1189,-0.2056,-0.29913,-9.76834
27.12894,-0.20096,-0.30242,-9.76505
27.13897,-0.20665,-0.28955,-9.74275
27.14901,-0.20366,-0.31469,-9.76894
27.15905,-0.19737,-0.31244,-9.78809
27.16909,-0.21144,-0.30661,-9.76176
27.17912,-0.21009,-0.31708,-9.74665
27.18916,-0.19662,-0.33893,-9.76774
27.1992,-0.19318,-0.33444,-9.77119
27.20924,-0.19782,-0.32456,-9.76161
27.21927,-0.19184,-0.3322,-9.77672
27.22931,-0.19617,-0.31978,-9.77029
27.23935,-0.19423,-0.32082,-9.75742
27.24939,-0.2056,-0.29868,-9.76759
27.25943,-0.20261,-0.29763,-9.78959
27.26946,-0.205,-0.30541,-9.75024
27.2795,-0.21009,-0.31065,-9.75503
27.28954,-0.21278,-0.29598,-9.75996
27.29957,-0.2053,-0.2882,-9.7664
27.30961,-0.21129,-0.30661,-9.75128
27.31965,-0.20515,-0.30855,-9.764
27.32969,-0.20411,-0.3114,-9.75323
27.33973,-0.20815,-0.31529,-9.73931
27.34976,-0.21563,-0.32471,-9.75084
27.3598,-0.22431,-0.33519,-9.75413
27.36984,-0.21338,-0.32052,-9.76236
27.37988,-0.20605,-0.31603,-9.79079
27.38991,-0.21503,-0.32501,-9.78585
27.39995,-0.22341,-0.30122,-9.76834
27.40999,-0.20889,-0.31813,-9.75936
27.42003,-0.19887,-0.30451,-9.76535
27.43006,-0.19573,-0.30347,-9.76535
27.4401,-0.18286,-0.3102,-9.77882
27.45014,-0.18675,-0.30017,-9.7667
27.46018,-0.19558,-0.29119,-9.767
27.47021,-0.2044,-0.29224,-9.73213
27.48025,-0.19169,-0.30317,-9.7248
27.49029,-0.21264,-0.31214,-9.76834
27.50033,-0.19977,-0.30122,-9.78031
27.51036,-0.21368,-0.30421,-9.74694
27.5204,-0.2267,-0.32337,-9.75697
27.53044,-0.22535,-0.32397,-9.77553
27.54048,-0.21727,-0.32142,-9.76999
27.55051,-0.21967,-0.31469,-9.7667
27.56055,-0.20979,-0.33833,-9.77238
27.57059,-0.19992,-0.33384,-9.74814
27.58063,-0.19049,-0.3319,-9.74724
27.59066,-0.19228,-0.32441,-9.76954
27.6007,-0.19528,-0.30586,-9.77807
27.61074,-0.19333,-0.31903,-9.75757
27.62078,-0.19004,-0.31199,-9.74724
27.63082,-0.19483,-0.31633,-9.77597
27.64085,-0.19228,-0.3117,-9.77223
27.65089,-0.21009,-0.31753,-9.76565
27.66093,-0.21398,-0.31723,-9.76655
27.67097,-0.2062,-0.31574,-9.78181
27.681,-0.22131,-0.32322,-9.75697
27.69104,-0.2282,-0.31409,-9.77552
27.70108,-0.23224,-0.3087,-9.74889
27.71112,-0.23029,-0.29928,-9.7465
27.72115,-0.22431,-0.29538,-9.75981
27.73119,-0.20979,-0.29449,-9.74425
27.74123,-0.18974,-0.30137,-9.75158
27.75127,-0.19303,-0.29673,-9.74395
27.7613,-0.19692,-0.30706,-9.76475
27.77134,-0.19752,-0.28192,-9.76056
27.78138,-0.19902,-0.31125,-9.75248
27.79142,-0.2062,-0.32022,-9.77463
27.80145,-0.19977,-0.32382,-9.77119
27.81149,-0.2044,-0.31529,-9.75907
27.82153,-0.20695,-0.33893,-9.75772
27.83157,-0.19348,-0.33564,-9.77298
27.84161,-0.20455,-0.33788,-9.76071
27.85164,-0.20949,-0.32382,-9.77657
27.86168,-0.19707,-0.32471,-9.77807
27.87172,-0.19064,-0.31768,-9.76595
27.88176,-0.19049,-0.32441,-9.76595
27.89179,-0.17283,-0.31274,-9.7875
27.90183,-0.18151,-0.30975,-9.77792
27.91187,-0.19692,-0.30691,-9.74754
27.92191,-0.19722,-0.3087,-9.76101
27.93194,-0.20306,-0.31199,-9.77343
27.94198,-0.2071,-0.30077,-9.75158
27.95202,-0.20545,-0.31559,-9.74799
27.96206,-0.20366,-0.32456,-9.75682
27.97209,-0.21398,-0.29718,-9.75398
27.98213,-0.22655,-0.30436,-9.74889
27.99217,-0.21458,-0.31693,-9.76101
28.00221,-0.2044,-0.31259,-9.78256
28.01224,-0.19857,-0.31648,-9.75622
28.02228,-0.20381,-0.31199,-9.76475
28.03232,-0.20575,-0.32666,-9.76864
28.04236,-0.21308,-0.32277,-9.75143
28.05239,-0.19617,-0.30825,-9.75413
28.06243,-0.19169,-0.3117,-9.77777
28.07247,-0.18839,-0.32052,-9.79049
28.08251,-0.20276,-0.32965,-9.74156
28.09254,-0.20455,-0.31738,-9.72779
28.10258,-0.20859,-0.33444,-9.77597
28.11262,-0.20351,-0.30706,-9.76819
28.12266,-0.19363,-0.29898,-9.75428
28.1327,-0.20186,-0.32621,-9.77553
28.14273,-0.19603,-0.31229,-9.75712
28.15277,-0.2077,-0.31588,-9.76011
28.16281,-0.21922,-0.29928,-9.77777
28.17285,-0.20845,-0.30586,-9.75907
28.18288,-0.19692,-0.31708,-9.74111
28.19292,-0.20994,-0.30122,-9.7643
28.20296,-0.21682,-0.29838,-9.77882
28.213,-0.22221,-0.31125,-9.76789
28.22303,-0.20455,-0.32531,-9.75084
28.23307,-0.20515,-0.33698,-9.75637
28.24311,-0.19498,-0.32022,-9.75308
28.25315,-0.19199,-0.32636,-9.75458
28.26318,-0.20201,-0.32995,-9.77912
28.27322,-0.2047,-0.31843,-9.77986
28.28326,-0.19139,-0.31454,-9.75473
28.2933,-0.18645,-0.31918,-9.74515
28.30333,-0.20126,-0.32112,-9.77508
28.31337,-0.18944,-0.31963,-9.78256
28.32341,-0.20051,-0.31424,-9.77792
28.33345,-0.19872,-0.31035,-9.77553
28.34348,-0.20575,-0.3289,-9.74575
28.35352,-0.21099,-0.31663,-9.75278
28.36356,-0.22072,-0.30541,-9.77268
28.3736,-0.2252,-0.31873,-9.75727
28.38363,-0.21159,-0.31184,-9.74964
28.39367,-0.20022,-0.31574,-9.75398
28.40371,-0.20096,-0.30616,-9.78331
28.41375,-0.19692,-0.309,-9.7643
28.42378,-0.2077,-0.31349,-9.77523
28.43382,-0.20366,-0.32112,-9.76415
28.44386,-0.19498,-0.31065,-9.75293
28.4539,-0.19947,-0.32352,-9.74949
28.46394,-0.19797,-0.32875,-9.7661
28.47397,-0.19692,-0.32277,-9.76849
28.48401,-0.20111,-0.32801,-9.75996
28.49405,-0.21264,-0.32292,-9.76535
28.50409,-0.21413,-0.33459,-9.76505
28.51412,-0.20216,-0.31155,-9.75981
28.52416,-0.20785,-0.30795,-9.75233
28.5342,-0.21054,-0.32456,-9.78525
28.54424,-0.20096,-0.3081,-9.7655
28.55427,-0.20066,-0.30706,-9.74874
28.56431,-0.21264,-0.3078,-9.77448
28.57435,-0.21353,-0.3117,-9.76266
28.58439,-0.20051,-0.30676,-9.75921
28.59442,-0.19558,-0.32352,-9.75054
28.60446,-0.19079,-0.31753,-9.74694
28.6145,-0.19857,-0.29119,-9.77762
28.62454,-0.20096,-0.3087,-9.76206
28.63457,-0.21024,-0.32352,-9.73363
28.64461,-0.20635,-0.29613,-9.72525
28.65465,-0.19962,-0.30586,-9.77912
28.66469,-0.21578,-0.32022,-9.78361
28.67472,-0.2288,-0.34087,-9.76026
28.68476,-0.21862,-0.32471,-9.75158
28.6948,-0.2071,-0.32382,-9.77897
28.70484,-0.19228,-0.33459,-9.79393
28.71487,-0.18361,-0.32756,-9.77388
28.72491,-0.17732,-0.31663,-9.7438
28.73495,-0.19228,-0.3093,-9.76909
28.74499,-0.1667,-0.3301,-9.79453
28.75503,-0.17163,-0.31514,-9.78495
28.76506,-0.18989,-0.29613,-9.76071
28.7751,-0.19558,-0.31184,-9.77134
28.78514,-0.21189,-0.29658,-9.75338
28.79518,-0.2261,-0.30885,-9.75981
28.80521,-0.22595,-0.30212,-9.76879
28.81525,-0.22236,-0.30391,-9.77104
28.82529,-0.23074,-0.30032,-9.76296
28.83533,-0.22431,-0.30332,-9.74934
28.84536,-0.2264,-0.32142,-9.76281
28.8554,-0.21293,-0.32741,-9.75128
28.86544,-0.18765,-0.32711,-9.76026
28.87548,-0.19857,-0.31184,-9.77298
28.88551,-0.19962,-0.31199,-9.77986
28.89555,-0.18061,-0.32531,-9.77193
28.90559,-0.18286,-0.31633,-9.7637
28.91563,-0.1866,-0.31798,-9.7655
28.92566,-0.17702,-0.33878,-9.76026
28.9357,-0.19588,-0.33728,-9.77597
28.94574,-0.21189,-0.32382,-9.75832
28.95578,-0.21069,-0.31828,-9.75772
28.96581,-0.21847,-0.32292,-9.77268
28.97585,-0.2077,-0.32262,-9.77044
28.98589,-0.21877,-0.31095,-9.74679
28.99593,-0.23373,-0.30107,-9.74096
29.00596,-0.2062,-0.29928,-9.7634
29.01663,-0.2062,-0.29928,-9.7634
29.02667,-0.2077,-0.30197,-9.75413
29.0367,-0.21293,-0.30466,-9.75966
29.04674,-0.21308,-0.30436,-9.77433
29.05678,-0.20171,-0.30676,-9.76116
29.06682,-0.21488,-0.3114,-9.75428
29.07685,-0.20635,-0.32995,-9.75742
29.08689,-0.20171,-0.33294,-9.76296
29.09693,-0.19872,-0.32127,-9.77508
29.10697,-0.2077,-0.32666,-9.77029
29.117,-0.20515,-0.32875,-9.77328
29.12704,-0.20291,-0.3307,-9.7658
29.13708,-0.19782,-0.32726,-9.77388
29.14712,-0.22027,-0.31184,-9.78824
29.15716,-0.19977,-0.30601,-9.77163
29.16719,-0.19513,-0.31708,-9.75128
29.17723,-0.21278,-0.33025,-9.75907
29.18727,-0.20216,-0.30855,-9.77418
29.19731,-0.20231,-0.29568,-9.75547
29.20734,-0.23164,-0.29942,-9.74889
29.21738,-0.22131,-0.30092,-9.75712
29.22742,-0.2074,-0.30481,-9.75921
29.23746,-0.20141,-0.30107,-9.76176
29.24749,-0.20934,-0.30915,-9.77942
29.25753,-0.21458,-0.31678,-9.75981
29.26757,-0.2068,-0.33294,-9.74365
29.27761,-0.20246,-0.32786,-9.76924
29.28764,-0.19573,-0.31723,-9.78705
29.29768,-0.20036,-0.32067,-9.75787
29.30772,-0.19318,-0.3316,-9.76655
29.31776,-0.19662,-0.31798,-9.7655
29.32779,-0.2044,-0.31005,-9.75547
29.33783,-0.19333,-0.3286,-9.77463
29.34787,-0.17702,-0.33384,-9.76954
29.35791,-0.20605,-0.31529,-9.74635
29.36794,-0.208,-0.30227,-9.75083
29.37798,-0.21832,-0.31319,-9.75862
29.38802,-0.19603,-0.33264,-9.75727
29.39806,-0.20635,-0.3307,-9.74156
29.40809,-0.19932,-0.28237,-9.75413
29.41813,-0.21383,-0.30077,-9.77568
29.42817,-0.23568,-0.3084,-9.77957
29.43821,-0.23373,-0.27892,-9.73901
29.44824,-0.22476,-0.27593,-9.78211
29.45828,-0.21608,-0.30361,-9.79737
29.46832,-0.24226,-0.32965,-9.74275
29.47836,-0.23059,-0.35644,-9.73273
29.4884,-0.20605,-0.3524,-9.79797
29.49843,-0.19094,-0.35539,-9.83598
29.50847,-0.15652,-0.34761,-9.83673
29.51851,-0.1429,-0.38636,-9.74006
29.52855,-0.13797,-0.39325,-9.73243
29.53858,-0.13901,-0.38397,-9.7842
29.54862,-0.12734,-0.33594,-9.81922
29.55866,-0.10594,-0.32546,-9.78615
29.5687,-0.12585,-0.3304,-9.7462
29.57873,-0.1839,-0.28446,-9.76894
29.58877,-0.24137,-0.24885,-9.77448
29.59881,-0.28835,-0.22461,-9.70639
29.60885,-0.31559,-0.24361,-9.67991
29.61888,-0.31559,-0.24885,-9.73438
29.62892,-0.32486,-0.21533,-9.73991
29.63896,-0.33968,-0.23747,-9.70624
29.649,-0.33354,-0.27189,-9.71058
29.65903,-0.29928,-0.28102,-9.72465
29.66907,-0.27638,-0.27189,-9.74455
29.67974,-0.18959,-0.31978,-9.77582
29.68977,-0.18959,-0.31978,-9.77582
29.69981,-0.13422,-0.36452,-9.75637
29.70985,-0.1046,-0.35075,-9.77912
29.71989,-0.09906,-0.33504,-9.81204
29.72992,-0.12659,-0.34626,-9.81443
29.73996,-0.14664,-0.35389,-9.76296
29.75,-0.15697,-0.33803,-9.76999
29.76004,-0.1667,-0.33683,-9.80171
29.77007,-0.18525,-0.33923,-9.76086
29.78011,-0.21024,-0.33624,-9.74156
29.79015,-0.24406,-0.33624,-9.74261
29.80019,-0.28192,-0.29045,-9.75802
29.81022,-0.27653,-0.25783,-9.74545
29.82026,-0.28207,-0.2674,-9.74216
29.8303,-0.27309,-0.26426,-9.73123
29.84034,-0.24481,-0.2475,-9.70968
29.85037,-0.22431,-0.26321,-9.74889
29.86041,-0.19438,-0.2888,-9.79079
29.87045,-0.18256,-0.30107,-9.75383
29.88049,-0.17957,-0.3108,-9.75428
29.89053,-0.18525,-0.33564,-9.78809
29.90056,-0.19139,-0.33908,-9.79588
29.9106,-0.19603,-0.34447,-9.76221
29.92064,-0.19573,-0.36123,-9.77747
29.93068,-0.19528,-0.35868,-9.79273
29.94071,-0.19423,-0.35359,-9.76819
29.95075,-0.18809,-0.34043,-9.764
29.96079,-0.20171,-0.32531,-9.78151
29.97083,-0.2056,-0.28057,-9.76086
29.98086,-0.22176,-0.25199,-9.74964
29.9909,-0.23224,-0.25872,-9.76296
30.00094,-0.22386,-0.26576,-9.75353
30.01098,-0.21623,-0.28072,-9.74545
30.02101,-0.21413,-0.28566,-9.7658
30.03105,-0.21563,-0.29509,-9.75832
30.04109,-0.21952,-0.30795,-9.74066
30.05113,-0.22356,-0.3108,-9.76715
30.06116,-0.22625,-0.31125,-9.78001
30.0712,-0.20605,-0.33025,-9.75218
30.08124,-0.19662,-0.35733,-9.75383
30.09128,-0.19169,-0.35943,-9.78884
30.10131,-0.18555,-0.33564,-9.7646
30.11135,-0.1878,-0.31933,-9.7646
30.12139,-0.19139,-0.31349,-9.77074
30.13143,-0.20186,-0.31199,-9.78675
30.14146,-0.2062,-0.27922,-9.73617
30.1515,-0.21099,-0.28446,-9.74739
30.16154,-0.22101,-0.29763,-9.77119
30.17158,-0.2258,-0.30002,-9.73048
30.18161,-0.22954,-0.2909,-9.74545
30.19165,-0.22835,-0.29269,-9.80141
30.20169,-0.23343,-0.30556,-9.76131
30.21173,-0.23014,-0.30361,-9.71806
30.22177,-0.21548,-0.3295,-9.75398
30.2318,-0.20261,-0.31454,-9.79947
30.24184,-0.17687,-0.31768,-9.77178
30.25188,-0.17208,-0.33369,-9.74964
30.26192,-0.17867,-0.33953,-9.75128
30.27195,-0.17732,-0.30915,-9.74709
30.28199,-0.17852,-0.27114,-9.73348
30.29203,-0.19528,-0.27459,-9.75188
30.30207,-0.2065,-0.27518,-9.78615
30.3121,-0.24181,-0.2698,-9.79513
30.32214,-0.26665,-0.27084,-9.8062
30.33218,-0.28551,-0.32666,-9.7646
30.34222,-0.27638,-0.38113,-9.72794
30.35225,-0.27384,-0.39549,-9.74994
30.36229,-0.23673,-0.38831,-9.77597
30.37233,-0.19363,-0.34267,-9.73797
30.38237,-0.19543,-0.31873,-9.71672
30.3924,-0.19154,-0.25962,-9.75368
30.40244,-0.1652,-0.19588,-9.80605
30.41248,-0.16969,-0.186,-9.80351
30.42252,-0.186,-0.22057,-9.77104
30.43255,-0.2059,-0.30227,-9.75802
30.44259,-0.21129,-0.33235,-9.73004
30.45263,-0.23478,-0.35329,-9.74784
30.46267,-0.23882,-0.38532,-9.75308
30.4727,-0.25289,-0.38621,-9.74994
30.48274,-0.2478,-0.35494,-9.74979
30.49278,-0.23209,-0.31993,-9.78795
30.50282,-0.2047,-0.32097,-9.77418
30.51285,-0.17478,-0.32187,-9.76969
30.52289,-0.14141,-0.31618,-9.77612
30.53293,-0.12719,-0.31409,-9.78869
30.54297,-0.12854,-0.31574,-9.77777
30.55301,-0.16101,-0.31229,-9.77478
30.56304,-0.18525,-0.31424,-9.76385
30.57308,-0.22595,-0.2906,-9.74485
30.58312,-0.23388,-0.30571,-9.75996
30.59316,-0.25932,-0.31663,-9.75473
30.60319,-0.27339,-0.33429,-9.75173
30.61323,-0.27743,-0.33863,-9.75458
30.62327,-0.24376,-0.30257,-9.75742
30.6333,-0.2484,-0.30257,-9.76774
30.64334,-0.23194,-0.29972,-9.74694
30.65338,-0.21069,-0.29179,-9.74949
30.66342,-0.17657,-0.30646,-9.77403
30.67346,-0.16131,-0.30376,-9.77702
30.68349,-0.14814,-0.32127,-9.75083
30.69353,-0.15278,-0.32875,-9.78196
30.70357,-0.16475,-0.3117,-9.79543
30.71361,-0.18675,-0.30391,-9.76041
30.72364,-0.19752,-0.32546,-9.75562
30.73368,-0.20276,-0.33414,-9.77029
30.74372,-0.21922,-0.34297,-9.75981
30.75376,-0.21368,-0.33848,-9.76191
30.76379,-0.22505,-0.33249,-9.77089
30.77383,-0.22131,-0.33384,-9.75877
30.78387,-0.2062,-0.31723,-9.74679
30.79391,-0.21159,-0.29987,-9.76715
30.80394,-0.21503,-0.27279,-9.78286
30.81398,-0.21264,-0.27399,-9.76041
30.82402,-0.20874,-0.29688,-9.75158
30.83406,-0.19363,-0.28985,-9.76999
30.84409,-0.20216,-0.29194,-9.7667
30.85413,-0.20904,-0.30451,-9.74081
30.86417,-0.23119,-0.31424,-9.76296
30.87421,-0.22386,-0.31933,-9.75877
30.88424,-0.2288,-0.31753,-9.75383
30.89428,-0.23224,-0.32606,-9.77657
30.90432,-0.20815,-0.35195,-9.77523
30.91436,-0.19962,-0.32501,-9.75338
30.92439,-0.18884,-0.33429,-9.75697
30.93443,-0.17612,-0.32382,-9.77148
30.94447,-0.15847,-0.31125,-9.77582
30.95451,-0.16655,-0.30272,-9.77074
30.96454,-0.16849,-0.30825,-9.7649
30.97458,-0.19812,-0.29987,-9.76954
30.98462,-0.20785,-0.30347,-9.75562
30.99466,-0.20815,-0.32127,-9.75248
31.0047,-0.20845,-0.31394,-9.77717
31.01473,-0.23284,-0.3292,-9.76819
31.02477,-0.2261,-0.32486,-9.75682
31.03481,-0.24885,-0.31813,-9.7637
31.04485,-0.23538,-0.29778,-9.74545
31.05488,-0.21039,-0.31813,-9.75473
31.06492,-0.20036,-0.30257,-9.77747
31.07496,-0.18645,-0.31723,-9.76685
31.085,-0.18091,-0.31035,-9.74665
31.09503,-0.17119,-0.31199,-9.76311
31.10507,-0.19094,-0.29359,-9.78091
31.11511,-0.19213,-0.28985,-9.76131
31.12515,-0.19049,-0.32232,-9.76236
31.13518,-0.21069,-0.34013,-9.76685
31.14522,-0.2074,-0.31888,-9.75981
31.15526,-0.20246,-0.31199,-9.75862
31.1653,-0.21847,-0.31499,-9.77627
31.17533,-0.23747,-0.31933,-9.76026
31.18537,-0.21802,-0.31843,-9.73782
31.19541,-0.21623,-0.30646,-9.77029
31.20545,-0.20695,-0.31364,-9.78091
31.21548,-0.19947,-0.31574,-9.75607
31.22552,-0.19184,-0.30197,-9.74679
31.23556,-0.21383,-0.29479,-9.77702
31.2456,-0.2059,-0.30347,-9.77897
31.25563,-0.21952,-0.29269,-9.76595
31.26567,-0.22401,-0.30466,-9.75592
31.27571,-0.20889,-0.3117,-9.76191
31.28575,-0.21877,-0.31723,-9.75517
31.29579,-0.21413,-0.32037,-9.77014
31.30582,-0.21563,-0.3087,-9.767
31.31586,-0.20351,-0.31738,-9.77942
31.3259,-0.21353,-0.31349,-9.75966
31.33594,-0.19513,-0.31544,-9.7649
31.34597,-0.19617,-0.31633,-9.78809
31.35601,-0.19707,-0.32142,-9.75682
31.36605,-0.19079,-0.32157,-9.76146
31.37609,-0.18884,-0.31678,-9.76969
31.38612,-0.18495,-0.30631,-9.77957
31.39616,-0.18405,-0.31409,-9.76131
31.4062,-0.20231,-0.3117,-9.76655
31.41624,-0.21264,-0.3304,-9.76685
31.42627,-0.21189,-0.32127,-9.745
31.43631,-0.2059,-0.32352,-9.76355
31.44635,-0.20979,-0.32905,-9.77882
31.45639,-0.21144,-0.32232,-9.77193
31.46642,-0.21144,-0.3117,-9.76176
31.47646,-0.21847,-0.31588,-9.7875
31.4865,-0.19423,-0.29688,-9.74156
31.49654,-0.21204,-0.29389,-9.68814
31.50657,-0.19902,-0.32232,-9.7845
31.51661,-0.18899,-0.28955,-9.846
31.52665,-0.19064,-0.25902,-9.71687
31.53669,-0.17777,-0.31289,-9.69173
31.54673,-0.2059,-0.33369,-9.80246
31.55676,-0.21847,-0.28177,-9.78181
31.5668,-0.20276,-0.29224,-9.74739
31.57684,-0.19692,-0.33968,-9.75173
31.58688,-0.205,-0.3512,-9.70654
31.59691,-0.20904,-0.31873,-9.76026
31.60695,-0.22281,-0.27952,-9.78839
31.61699,-0.21443,-0.30391,-9.88686
31.62703,-0.19737,-0.3111,-9.76999
31.63706,-0.2267,-0.34776,-9.68335
31.6471,-0.21907,-0.36512,-9.78555
31.65714,-0.20964,-0.353,-9.868
31.66718,-0.17163,-0.33758,-9.65791
31.67721,-0.13273,-0.3711,-9.73273
31.68725,-0.16505,-0.34791,-9.88536
31.69729,-0.21413,-0.24122,-9.72704
31.70733,-0.21742,-0.26621,-9.81802
31.71736,-0.2288,-0.26246,-9.60584
31.7274,-0.21114,-0.32995,-9.78151
31.73744,-0.18944,-0.30032,-9.85079
31.74748,-0.27324,-0.22505,-9.83613
31.75751,-0.27518,-0.29957,-9.58174
31.76755,-0.2906,-0.37439,-9.68619
31.77759,-0.29404,-0.29075,-9.84092
31.78763,-0.19408,-0.24391,-9.72136
31.79767,-0.2071,-0.28162,-9.74305
31.8077,-0.21578,-0.37379,-9.72794
31.81774,-0.18884,-0.34925,-9.69008
31.82778,-0.19288,-0.24152,-9.86261
31.83782,-0.17208,-0.26366,-9.85124
31.84785,-0.16759,-0.372,-9.73602
31.85789,-0.21503,-0.35913,-9.66943
31.86793,-0.21174,-0.32486,-9.80126
31.87797,-0.19348,-0.30421,-9.85633
31.888,-0.19213,-0.32771,-9.75278
31.89804,-0.18959,-0.37394,-9.68933
31.90808,-0.23254,-0.31588,-9.7851
31.91812,-0.2496,-0.26291,-9.79603
31.92815,-0.22625,-0.2704,-9.73123
31.93819,-0.21174,-0.30167,-9.73692
31.94823,-0.17942,-0.29853,-9.76281
31.95827,-0.2047,-0.227,-9.78959
31.9683,-0.21293,-0.23733,-9.79857
31.97834,-0.20635,-0.31978,-9.76176
31.98838,-0.1875,-0.33998,-9.71163
31.99842,-0.18959,-0.29838,-9.74874
32.00845,-0.2261,-0.29419,-9.81159
32.01849,-0.24585,-0.32412,-9.79019
32.02853,-0.24047,-0.3512,-9.69352
32.03857,-0.20979,-0.35,-9.70729
32.0486,-0.19782,-0.3289,-9.82311
32.05864,-0.20261,-0.31768,-9.78884
32.06868,-0.21608,-0.32561,-9.67123
32.07872,-0.21697,-0.30601,-9.74425
32.08875,-0.21563,-0.2668,-9.86127
32.09879,-0.21593,-0.24675,-9.85259
32.10883,-0.23164,-0.30002,-9.75024
32.11887,-0.24421,-0.3928,-9.70879
32.12891,-0.22655,-0.38143,-9.73991
32.13894,-0.21039,-0.36137,-9.7658
32.14898,-0.19109,-0.35015,-9.76236
32.15902,-0.1857,-0.35629,-9.79079
32.16906,-0.18211,-0.32127,-9.74739
32.17909,-0.17942,-0.25753,-9.7655
32.18913,-0.18271,-0.24017,-9.7845
32.19917,-0.17807,-0.29,-9.77553
32.20921,-0.17014,-0.30167,-9.73273
32.21924,-0.20291,-0.27459,-9.74859
32.22928,-0.23299,-0.27937,-9.78346
32.23932,-0.25887,-0.29419,-9.76445
32.24936,-0.25633,-0.32232,-9.74021
32.25939,-0.23403,-0.32711,-9.73901
32.26943,-0.24541,-0.32591,-9.79647
32.27947,-0.22057,-0.32367,-9.7646
32.28951,-0.21234,-0.33294,-9.79273
32.29954,-0.19034,-0.32531,-9.74006
32.30958,-0.16296,-0.31903,-9.7643
32.31962,-0.16415,-0.30556,-9.7872
32.32966,-0.17418,-0.30496,-9.77074
32.33969,-0.18256,-0.31903,-9.75772
32.34973,-0.17672,-0.32067,-9.76206
32.35977,-0.1878,-0.30825,-9.80785
32.36981,-0.20096,-0.31409,-9.7456
32.37985,-0.2273,-0.32681,-9.74859
32.38988,-0.25019,-0.3298,-9.73213
32.39992,-0.25723,-0.30212,-9.79079
32.40996,-0.25872,-0.29778,-9.76056
32.42,-0.22431,-0.30751,-9.73677
32.43003,-0.20874,-0.3111,-9.74874
32.44007,-0.19632,-0.30092,-9.76251
32.45011,-0.1848,-0.287,-9.75353
32.46015,-0.16729,-0.31903,-9.77523
32.47018,-0.18525,-0.32142,-9.76685
32.48022,-0.19393,-0.30137,-9.77612
32.49026,-0.19513,-0.29329,-9.74904
32.5003,-0.20755,-0.31978,-9.75084
32.51033,-0.21443,-0.33743,-9.75278
32.52037,-0.22565,-0.34013,-9.78735
32.53041,-0.21189,-0.33848,-9.81563
32.54045,-0.2273,-0.31933,-9.75009
32.55048,-0.23867,-0.31888,-9.72555
32.56052,-0.23762,-0.32112,-9.75682
32.57056,-0.2279,-0.29853,-9.78106
32.5806,-0.1842,-0.28401,-9.76595
32.59063,-0.17942,-0.30975,-9.77403
32.60067,-0.17912,-0.32845,-9.75173
32.61071,-0.19303,-0.2888,-9.74141
32.62075,-0.20845,-0.28715,-9.77074
32.63079,-0.21368,-0.31753,-9.77972
32.64082,-0.21608,-0.31918,-9.75188
32.65086,-0.21817,-0.31963,-9.74036
32.6609,-0.21802,-0.32561,-9.76086
32.67094,-0.2264,-0.33235,-9.78929
32.68097,-0.22461,-0.31873,-9.7429
32.69101,-0.21129,-0.32202,-9.73812
32.70105,-0.20366,-0.32441,-9.79139
32.71109,-0.20096,-0.28925,-9.76415
32.72112,-0.21024,-0.26486,-9.77388
32.73116,-0.19543,-0.27578,-9.77328
32.7412,-0.19842,-0.26276,-9.77687
32.75124,-0.18959,-0.29179,-9.71447
32.76127,-0.19393,-0.32845,-9.77642
32.77131,-0.19348,-0.33653,-9.76565
32.78135,-0.21937,-0.34536,-9.77912
32.79139,-0.24286,-0.35659,-9.76116
32.80142,-0.24331,-0.3506,-9.76655
32.81146,-0.21114,-0.35225,-9.7649
32.8215,-0.19169,-0.34491,-9.77508
32.83154,-0.18809,-0.33728,-9.79932
32.84158,-0.17762,-0.33025,-9.7866
32.85161,-0.16729,-0.30915,-9.75787
32.86165,-0.14679,-0.29449,-9.77059
32.87169,-0.16385,-0.27025,-9.77014
32.88173,-0.19064,-0.26097,-9.76804
32.89176,-0.21922,-0.28386,-9.74679
32.9018,-0.23912,-0.29509,-9.7661
32.91184,-0.24166,-0.31125,-9.74635
32.92188,-0.23957,-0.32666,-9.75323
32.93191,-0.25064,-0.3286,-9.77044
32.94195,-0.25738,-0.32726,-9.764
32.95199,-0.25304,-0.32142,-9.75562
32.96203,-0.2261,-0.32696,-9.74635
32.97206,-0.1845,-0.33758,-9.79199
32.9821,-0.17552,-0.32741,-9.74739
32.99214,-0.16266,-0.32486,-9.79019
33.00218,-0.1438,-0.33878,-9.76101
33.01284,-0.14724,-0.30661,-9.77223
33.02288,-0.15877,-0.32397,-9.77942
33.03292,-0.17014,-0.30556,-9.77942
33.04295,-0.20351,-0.30287,-9.76744
33.05299,-0.2457,-0.29494,-9.74605
33.06303,-0.25259,-0.31813,-9.75921
33.07307,-0.2481,-0.31005,-9.76789
33.0831,-0.23284,-0.31349,-9.73348
33.09314,-0.2288,-0.32082,-9.77044
33.10318,-0.23388,-0.30451,-9.76565
33.11322,-0.23747,-0.27848,-9.74799
33.12326,-0.20904,-0.28686,-9.7646
33.13329,-0.18375,-0.29942,-9.78405
33.14333,-0.16999,-0.29808,-9.77119
33.15337,-0.17493,-0.32681,-9.73901
33.16341,-0.20381,-0.34925,-9.76326
33.17344,-0.20201,-0.34387,-9.78331
33.18348,-0.20306,-0.31963,-9.78016
33.19352,-0.20141,-0.33115,-9.77807
33.20356,-0.20186,-0.331,-9.75233
33.21359,-0.19004,-0.33549,-9.77223
33.22363,-0.20201,-0.32561,-9.7649
33.23367,-0.17792,-0.3117,-9.77059
33.24371,-0.19483,-0.30302,-9.73991
33.25374,-0.19977,-0.30376,-9.79827
33.26378,-0.19438,-0.27982,-9.73856
33.27382,-0.21518,-0.27473,-9.72854
33.28386,-0.2282,-0.29598,-9.7465
33.29389,-0.21563,-0.30975,-9.77597
33.30393,-0.20725,-0.29823,-9.7655
33.31397,-0.23837,-0.30616,-9.74919
33.32401,-0.24391,-0.33788,-9.74425
33.33404,-0.23403,-0.32696,-9.75143
33.34408,-0.21952,-0.32636,-9.77792
33.35412,-0.20695,-0.31364,-9.75233
33.36416,-0.20859,-0.33279,-9.75218
33.37419,-0.18525,-0.34806,-9.76206
33.38423,-0.19393,-0.31349,-9.78765
33.39427,-0.18196,-0.30631,-9.76655
33.40431,-0.17134,-0.32576,-9.75877
33.41435,-0.17074,-0.3289,-9.75981
33.42438,-0.15742,-0.30571,-9.75847
33.43442,-0.18286,-0.29299,-9.77582
33.44446,-0.20186,-0.31918,-9.78346
33.4545,-0.20411,-0.32711,-9.74709
33.46453,-0.2065,-0.32082,-9.72465
33.47457,-0.21264,-0.31903,-9.77597
33.48461,-0.23134,-0.32097,-9.76281
33.49465,-0.23598,-0.32771,-9.73677
33.50468,-0.22176,-0.31738,-9.74216
33.51472,-0.21368,-0.29688,-9.77627
33.52476,-0.21219,-0.29284,-9.76325
33.5348,-0.21488,-0.30915,-9.78705
33.54483,-0.22236,-0.31678,-9.77448
33.55487,-0.22775,-0.31484,-9.75308
33.56491,-0.20246,-0.31574,-9.75098
33.57495,-0.19453,-0.32531,-9.7664
33.58498,-0.2056,-0.32965,-9.7444
33.59502,-0.18959,-0.32636,-9.75353
33.60506,-0.19767,-0.32681,-9.78839
33.6151,-0.20605,-0.3114,-9.76655
33.62513,-0.19423,-0.29928,-9.75592
33.63517,-0.20994,-0.31888,-9.7435
33.64521,-0.20066,-0.30691,-9.76804
33.65525,-0.2065,-0.29718,-9.77568
33.66528,-0.21922,-0.32052,-9.7459
33.67532,-0.20964,-0.32845,-9.76415
33.68599,-0.20964,-0.32845,-9.76415
33.69603,-0.20485,-0.32591,-9.77672
33.70606,-0.20605,-0.32292,-9.77582
33.7161,-0.20276,-0.32606,-9.75892
33.72614,-0.19917,-0.33773,-9.75562
33.73618,-0.17717,-0.31379,-9.7634
33.74621,-0.18151,-0.32905,-9.77119
33.75625,-0.19797,-0.33653,-9.77029
33.76629,-0.21189,-0.33519,-9.77597
33.77633,-0.21249,-0.32277,-9.76939
33.78636,-0.21682,-0.30077,-9.7631
33.7964,-0.19812,-0.31663,-9.75398
33.80644,-0.21293,-0.32322,-9.74171
33.81648,-0.21922,-0.30481,-9.76595
33.82651,-0.21772,-0.28416,-9.73901
33.83655,-0.227,-0.29105,-9.77298
33.84659,-0.21084,-0.29479,-9.78031
33.85663,-0.21174,-0.28715,-9.7429
33.86666,-0.21039,-0.30855,-9.77762
33.8767,-0.20276,-0.32666,-9.78151
33.88674,-0.20216,-0.32202,-9.7652
33.89678,-0.186,-0.32756,-9.75712
33.90681,-0.17912,-0.32097,-9.77238
33.91685,-0.17897,-0.34087,-9.78196
33.92689,-0.19707,-0.33055,-9.76146
33.93693,-0.19393,-0.33354,-9.76086
33.94696,-0.20156,-0.32801,-9.76924
33.957,-0.19348,-0.32621,-9.77373
33.96704,-0.20081,-0.3093,-9.73512
33.97708,-0.22326,-0.3096,-9.75308
33.98711,-0.23343,-0.30391,-9.77298
33.99715,-0.23074,-0.29314,-9.76131
34.00719,-0.21952,-0.30077,-9.73991
34.01723,-0.20934,-0.29778,-9.81712
34.02727,-0.20949,-0.29718,-9.73946
34.0373,-0.22191,-0.29523,-9.75787
34.04734,-0.21159,-0.31708,-9.76221
34.05738,-0.21009,-0.34895,-9.72614
34.06742,-0.19243,-0.32501,-9.827
34.07745,-0.19423,-0.3286,-9.74021
34.08749,-0.19692,-0.34506,-9.75787
34.09753,-0.21084,-0.32606,-9.76999
34.10757,-0.19977,-0.33878,-9.78929
34.1176,-0.19647,-0.30661,-9.75248
34.12764,-0.19752,-0.30451,-9.76191
34.13768,-0.16969,-0.32666,-9.77672
34.14772,-0.18031,-0.29269,-9.79603
34.15775,-0.18271,-0.30676,-9.78899
34.16779,-0.19722,-0.29643,-9.73183
34.17783,-0.22954,-0.28177,-9.73467
34.18787,-0.22655,-0.29494,-9.7444
34.1979,-0.21922,-0.29733,-9.78301
34.20794,-0.22865,-0.30855,-9.72809
