t,ax,ay,az
0.0,-0.08514,-3.19401,-6.3189
0.01004,-0.08514,-3.19401,-6.3189
0.02007,-0.01856,-3.54566,-6.14996
0.03011,0.07991,-3.77012,-6.2764
0.04015,0.07512,-3.83401,-6.42394
0.05019,0.3907,-3.61898,-6.55981
0.06022,1.20324,-3.08852,-6.67937
0.07026,-0.35614,-3.22963,-6.67339
0.0803,-0.5559,-3.17067,-6.96877
0.09034,-0.28326,-3.10423,-6.30932
0.10038,-0.41225,-2.85853,-5.86983
0.11041,-0.40911,-2.51271,-5.75282
0.12045,-0.32711,-2.47321,-5.39503
0.13049,0.06584,-2.92961,-5.43529
0.14052,-0.21009,-2.75932,-5.02708
0.15056,-0.09607,-2.97345,-5.83093
0.1606,-0.18585,-3.4282,-6.17195
0.17064,-0.3919,-3.24833,-4.98473
0.18068,0.16595,-3.49898,-4.38049
0.19071,-0.15263,-3.43807,-6.13724
0.20075,-0.88376,-3.78044,-7.33643
0.21079,-1.27476,-4.212,-9.51441
0.22082,-1.28284,-3.9241,-10.02407
0.23086,-0.67816,-3.26988,-10.02677
0.2409,0.2288,-1.85281,-9.72704
0.25094,0.95888,-1.10418,-9.63531
0.26098,0.75537,-1.05839,-9.55975
0.27101,0.59227,-1.32295,-9.82146
0.28105,0.26351,-1.87077,-11.03338
0.29109,-0.60109,-2.52528,-12.31727
0.30113,-0.99733,-2.99724,-12.9031
0.31116,-0.88855,-3.04602,-13.25999
0.3212,-0.74415,-3.18369,-13.7508
0.33124,-0.63895,-3.45453,-13.55103
0.34127,-0.29404,-3.43463,-13.19624
0.35131,-0.10879,-2.96522,-13.01458
0.36135,-0.41315,-2.63916,-12.99468
0.37139,-1.39732,-2.60205,-12.15102
0.38142,-1.80014,-2.40662,-12.08339
0.39146,-2.17139,-2.05288,-11.6451
0.4015,-2.70021,-1.91446,-11.23404
0.41154,-2.89429,-2.01667,-10.92878
0.42157,-2.8503,-2.19698,-10.22638
0.43161,-2.5787,-2.08161,-9.9497
0.44165,-2.28332,-1.75704,-9.94656
0.45169,-1.99691,-1.6086,-9.7848
0.46172,-1.54097,-1.59918,-9.51456
0.47176,-0.91548,-1.72158,-9.37255
0.4818,-0.48348,-1.75929,-9.2084
0.49184,-0.44652,-1.71934,-9.13089
0.50187,-0.76974,-1.74522,-9.18685
0.51191,-1.08203,-1.67863,-9.39395
0.52195,-1.12228,-1.5091,-9.46488
0.53199,-0.85428,-1.29945,-9.4345
0.54202,-0.41659,-1.22508,-9.49914
0.55206,0.00419,-1.47782,-9.83598
0.5621,0.14455,-1.93736,-9.69577
0.57214,0.08395,-2.26312,-9.64833
0.58217,0.01212,-2.14057,-10.10787
0.59221,-0.07452,-1.7759,-10.44934
0.60225,-0.18435,-1.49952,-11.07079
0.61229,-0.35599,-1.61803,-11.51431
0.62232,-0.38502,-1.96115,-11.68685
0.63236,-0.13243,-2.2317,-11.60066
0.6424,0.2674,-2.3945,-11.19753
0.65244,0.60199,-2.4376,-10.67799
0.66247,0.81208,-2.3526,-10.29686
0.67251,0.85862,-2.25549,-10.06717
0.68255,0.8251,-2.13159,-10.035
0.69259,0.8459,-1.95442,-10.17431
0.70262,0.99853,-1.93586,-10.29596
0.71266,1.1356,-2.00006,-10.47358
0.7227,1.16179,-1.99048,-10.62981
0.73274,1.11405,-1.86763,-10.72647
0.74277,1.02053,-1.68477,-10.9231
0.75281,0.86939,-1.46465,-11.09593
0.76285,0.72395,-1.26953,-11.19828
0.77289,0.62773,-1.05255,-11.25709
0.78292,0.56084,-0.88346,-11.19678
0.79296,0.44667,-0.81029,-11.03802
0.803,0.31618,-0.79143,-10.80758
0.81304,0.26845,-0.79996,-10.62562
0.82307,0.19333,-0.8688,-10.54526
0.83311,0.16685,-0.94212,-10.38036
0.84315,0.20665,-0.94212,-10.177
0.85319,0.27713,-0.92985,-9.93414
0.86322,0.40178,-0.91369,-9.70639
0.87326,0.45206,-0.92027,-9.50274
0.8833,0.38726,-0.88615,-9.38901
0.89334,0.28715,-0.91713,-9.35519
0.90337,0.09622,-0.93284,-9.38213
0.91341,-0.05477,-0.9897,-9.41894
0.92345,-0.1444,-0.99808,-9.40233
0.93349,-0.11612,-0.99763,-9.42298
0.94352,-0.05237,-1.05599,-9.44094
0.95356,-0.06988,-1.157,-9.44932
0.9636,-0.12629,-1.16538,-9.56214
0.97364,-0.23478,-1.11091,-9.6621
0.98367,-0.36332,-1.05779,-9.76879
0.99371,-0.43096,-0.98506,-9.8686
1.00375,-0.41524,-0.95244,-9.85468
1.01379,-0.35689,-0.99,-9.83284
1.02382,-0.31469,-1.01514,-9.86935
1.03386,-0.38502,-1.08757,-9.94626
1.0439,-0.45984,-1.12258,-9.96961
1.05394,-0.4335,-1.04971,-9.92561
1.06397,-0.33654,-0.95933,-9.89793
1.07401,-0.24496,-0.87343,-9.89913
1.08405,-0.27713,-0.85458,-9.91963
1.09409,-0.34058,-0.87583,-9.96751
1.10412,-0.38621,-0.89842,-10.04128
1.11416,-0.29853,-0.93957,-10.08183
1.1242,-0.2062,-0.9924,-10.01839
1.13424,-0.13497,-1.04492,-9.91185
1.14427,-0.1049,-1.09056,-9.85124
1.15431,-0.17163,-1.1356,-9.7872
1.16435,-0.22491,-1.13934,-9.73378
1.17439,-0.27294,-1.14443,-9.72614
1.18442,-0.35075,-1.19067,-9.75428
1.19446,-0.42512,-1.20877,-9.78316
1.2045,-0.49395,-1.18408,-9.71432
1.21454,-0.49755,-1.08068,-9.56678
1.22457,-0.3919,-1.02621,-9.23982
1.23461,0.35973,-1.60052,-8.52366
1.24465,0.35973,-1.60052,-8.52366
1.25469,0.42991,-1.77201,-8.55613
1.26472,0.48153,-1.81989,-8.90523
1.27476,0.43874,-1.80463,-9.31255
1.2848,0.2704,-1.53364,-9.54389
1.29484,0.03576,-1.04432,-9.61841
1.30487,-0.13153,-1.1374,-9.48658
1.31491,-0.02738,-1.23451,-9.28247
1.32495,0.37035,-1.13635,-8.90164
1.33498,0.73906,-1.24828,-8.41906
1.34502,0.73667,-1.31591,-7.94097
1.35506,0.56713,-1.38968,-7.72609
1.3651,1.13156,-1.46765,-8.2157
1.37514,1.37352,-1.34674,-8.29396
1.38517,1.1778,-1.33432,-8.03329
1.39521,0.95708,-1.67025,-8.13969
1.40525,0.50188,-1.64781,-8.55688
1.41529,-0.30227,-1.08816,-8.81695
1.42532,-0.58493,-0.82241,-9.40368
1.43536,-0.51371,-0.99045,-9.84825
1.4454,-0.83019,-0.90067,-9.89179
1.45544,-0.99584,-0.81538,-10.54421
1.46547,-1.17974,-0.67861,-10.90245
1.47551,-1.25905,-0.48782,-10.36495
1.48555,-1.06751,-0.32606,-9.94641
1.49559,-0.95214,-0.21877,-9.98786
1.50562,-0.59122,-0.38008,-10.22863
1.51566,0.03786,-0.50099,-11.07139
1.5257,0.69537,-0.5574,-9.81563
1.53574,1.71365,-0.57132,-10.49274
1.54577,2.07338,-0.18959,-11.05283
1.55581,1.71799,0.49725,-10.91457
1.56585,1.25321,0.74774,-10.29327
1.57589,0.81747,0.40657,-9.85887
1.58592,0.25019,0.15981,-10.10353
1.59596,-0.45146,0.19094,-10.34654
1.606,-0.82944,0.2044,-10.10952
1.61604,-0.82854,0.25244,-9.98143
1.62607,-0.43784,1.03789,-10.04173
1.63611,-0.3717,1.32609,-10.51354
1.64615,-0.5565,0.84964,-11.49995
1.65619,-0.81627,0.56309,-11.67787
1.66622,-0.72185,0.67906,-11.17583
1.67626,-0.3717,0.80325,-11.5016
1.6863,-0.11328,1.02921,-11.87569
1.69634,0.30466,1.28943,-11.6008
1.70637,0.81687,1.47797,-10.79755
1.71641,0.96022,1.4455,-10.34789
1.72645,0.81657,1.14443,-10.08767
1.73649,0.66963,0.7633,-9.73856
1.74652,0.70883,0.70719,-9.41729
1.75656,0.88526,1.01619,-9.38452
1.7666,1.04357,1.13126,-9.42986
1.77664,1.15849,1.13081,-9.46488
1.78667,1.21805,1.07589,-9.57007
1.79671,1.68208,1.09265,-9.54284
1.80675,2.48069,0.91877,-9.46413
1.81679,2.73912,0.32322,-9.9313
1.82682,2.07532,-0.16041,-10.21845
1.83686,1.66621,-0.18121,-9.34083
1.8469,1.62836,-0.11343,-8.75604
1.85694,1.74448,-0.02215,-8.75964
1.86697,1.78308,0.1426,-8.72851
1.87701,1.77725,0.35449,-8.72492
1.88705,1.6297,0.50892,-8.24832
1.89709,1.43847,0.52643,-8.31806
1.90712,1.22583,0.3527,-9.03781
1.91716,0.77976,0.10894,-9.4161
1.9272,0.32651,-0.28401,-10.87132
1.93724,0.00554,-0.46313,-12.04224
1.94727,-0.08814,-0.44472,-12.4485
1.95731,0.10669,-0.44742,-12.08234
1.96735,0.35988,-0.3717,-10.52671
1.97739,0.5167,-0.51969,-9.48463
1.98742,0.72514,-0.83902,-8.60641
1.99746,0.78844,-1.05899,-8.5476
2.0075,0.77527,-0.96022,-8.83864
2.01754,0.75687,-0.93658,-9.02644
2.02757,0.50084,-0.97668,-9.38722
2.03761,0.08664,-0.85473,-9.44438
2.04765,-0.19977,-0.74145,-8.83206
2.05769,-0.36616,-0.72514,-7.73432
2.06772,-0.47974,-0.99479,-8.44809
2.07776,-0.21009,-1.17436,-9.05322
2.0878,-0.03531,-1.0735,-9.25015
2.09784,0.07931,-0.80266,-9.56977
2.10787,0.15742,-0.48572,-9.71866
2.11791,0.13213,-0.19348,-9.84137
2.12795,0.09801,0.041,-10.08498
2.13799,-0.44442,0.20874,-14.87877
2.14802,0.24316,0.64,-13.8319
2.15806,0.74834,0.59885,-8.71968
2.1681,-0.09457,0.39639,-9.21049
2.17814,-0.13617,0.06225,-9.96676
2.18817,0.00913,-0.07766,-10.45862
2.19821,-0.15562,-0.17612,-10.67604
2.20825,-0.15996,-0.28252,-10.02527
2.21828,-0.20321,-0.42303,-9.78495
2.22832,-0.16071,-0.43305,-9.71851
2.23836,0.11253,-0.45475,-9.72016
2.2484,0.22176,-0.53181,-9.7634
2.25843,0.18211,-0.76016,-9.78301
2.26847,0.06943,-1.10477,-9.56783
2.27851,-0.21997,-1.33207,-9.4571
2.28855,-0.42273,-1.39432,-8.70876
2.29858,-0.54962,-1.29601,-8.78014
2.30862,-0.45265,-1.14308,-8.65863
2.31866,-0.23957,-1.04477,-9.29429
2.3287,-0.08963,-0.86146,-9.59237
2.33873,-0.10445,-0.66634,-9.79887
2.34877,-0.09846,-0.60962,-9.67347
2.35881,-0.05088,-0.43978,-9.45784
2.36885,0.08664,-0.23388,-8.98424
2.37888,0.12525,-0.12914,-8.73674
2.38892,0.06479,-0.07632,-8.57708
2.39896,0.05596,-0.05387,-8.3824
2.409,0.05312,-0.08185,-8.61374
2.41903,0.33309,0.01601,-10.29178
2.42907,-0.63042,0.26097,-18.07607
2.43911,0.09726,-0.12854,-9.99549
2.44915,0.28551,-0.12719,-7.69586
2.45918,0.13871,-0.05941,-9.50693
2.46922,-0.05043,-0.09846,-10.53284
2.47926,0.01167,-0.07482,-9.92995
2.4893,0.04609,-0.05791,-9.65043
2.49933,-0.05252,-0.13437,-9.78106
2.50937,0.18794,-0.28132,-9.37779
2.51941,0.31035,-0.27548,-9.44692
2.52945,0.34207,-0.17882,-8.33197
2.53948,0.32217,-0.19662,-4.79648
2.54952,-0.2273,-1.16687,-14.66508
2.55956,-0.64539,-0.31813,-12.36081
2.5696,-0.8658,-0.46702,-11.8908
2.57963,0.27623,-0.53675,-6.81614
2.58967,0.4742,-0.47106,-7.44058
2.59971,0.27099,-0.43066,-7.95758
2.60975,-0.38262,-0.28027,-13.33106
2.61978,-1.01649,-0.21682,-12.30425
2.62982,0.16999,-0.44382,-7.16914
2.63986,0.31843,-0.44981,-8.16004
2.6499,0.01541,-0.38098,-9.73408
2.65993,-0.79637,-0.23433,-12.9444
2.66997,0.02394,-0.43066,-7.76185
2.68001,0.16101,-0.39983,-8.90673
2.69005,-0.58897,-0.23478,-11.83499
2.70008,0.15473,-0.42781,-7.97688
2.71012,-0.3913,-0.34072,-11.02889
2.72016,-0.03232,-0.37664,-9.0013
2.7302,-0.18061,-0.34491,-9.99744
2.74023,-0.1857,-0.34866,-9.89568
2.75027,-0.18211,-0.37963,-9.82446
2.76031,-0.1631,-0.36093,-9.80934
2.77035,-0.13048,-0.33728,-9.75233
2.78038,-0.16685,-0.35,-9.79423
2.79042,-0.16685,-0.36167,-9.7634
2.80046,-0.14515,-0.35314,-9.723
2.8105,-0.1441,-0.35584,-9.75966
2.82053,-0.14769,-0.36377,-9.79124
2.83057,-0.16221,-0.35419,-9.76909
2.84061,-0.16056,-0.35778,-9.72121
2.85065,-0.16655,-0.35464,-9.77313
2.86068,-0.15054,-0.35793,-9.79094
2.87072,-0.14679,-0.35674,-9.75308
2.88076,-0.16475,-0.34821,-9.75413
2.8908,-0.17957,-0.36272,-9.7634
2.90083,-0.14664,-0.36347,-9.7842
2.91087,-0.14141,-0.35329,-9.76924
2.92091,-0.15128,-0.35554,-9.75188
2.93095,-0.16685,-0.36048,-9.75996
2.94098,-0.15263,-0.34611,-9.77283
2.95102,-0.13318,-0.34731,-9.7652
2.96106,-0.14126,-0.35554,-9.74186
2.9711,-0.17657,-0.36586,-9.75443
2.98113,-0.15368,-0.36347,-9.79677
2.99117,-0.13153,-0.34761,-9.78031
3.00121,-0.13916,-0.34102,-9.75532
3.01125,-0.16251,-0.37469,-9.75966
3.02128,-0.15832,-0.35285,-9.764
3.03132,-0.12854,-0.34102,-9.75218
3.04136,-0.1435,-0.3491,-9.76176
3.0514,-0.16954,-0.35943,-9.76774
3.06143,-0.1438,-0.35733,-9.75847
3.07147,-0.13408,-0.35015,-9.76759
3.08151,-0.14964,-0.35374,-9.78675
3.09155,-0.16146,-0.35943,-9.75996
3.10158,-0.16206,-0.35823,-9.72525
3.11162,-0.14769,-0.34641,-9.7655
3.12166,-0.15098,-0.36227,-9.79363
3.1317,-0.14904,-0.35689,-9.76445
3.14173,-0.14694,-0.35509,-9.745
3.15177,-0.15248,-0.35524,-9.77193
3.16181,-0.15428,-0.3509,-9.77553
3.17185,-0.145,-0.35524,-9.75996
3.18188,-0.15338,-0.35808,-9.76999
3.19192,-0.15517,-0.34985,-9.76191
3.20196,-0.15637,-0.34477,-9.76385
3.212,-0.15832,-0.34327,-9.7845
3.22203,-0.15473,-0.35479,-9.75847
3.23207,-0.15517,-0.34881,-9.73871
3.24211,-0.15293,-0.34656,-9.767
3.25215,-0.15203,-0.35404,-9.7878
3.26218,-0.15966,-0.34432,-9.75128
3.27222,-0.15143,-0.35853,-9.72659
3.28226,-0.16146,-0.36422,-9.75517
3.2923,-0.1456,-0.34551,-9.78241
3.30233,-0.1441,-0.33519,-9.74365
3.31237,-0.15098,-0.3506,-9.7447
3.32241,-0.16221,-0.36886,-9.78899
3.33245,-0.13752,-0.35344,-9.80336
3.34248,-0.13752,-0.33953,-9.75173
3.35252,-0.17313,-0.33893,-9.71717
3.36256,-0.17852,-0.36886,-9.76759
3.3726,-0.14829,-0.35419,-9.79378
3.38263,-0.11058,-0.34387,-9.75353
3.39267,-0.15458,-0.35494,-9.75173
3.40271,-0.17253,-0.36541,-9.77942
3.41275,-0.13527,-0.3494,-9.75847
3.42278,-0.1239,-0.34072,-9.75128
3.43282,-0.16266,-0.35314,-9.76834
3.44286,-0.1869,-0.37664,-9.77119
3.4529,-0.16026,-0.36467,-9.7459
3.46293,-0.13153,-0.3497,-9.76819
3.47297,-0.15248,-0.36826,-9.78331
3.48301,-0.17089,-0.35539,-9.74769
3.49305,-0.1465,-0.35599,-9.72809
3.50308,-0.14949,-0.3491,-9.77074
3.51312,-0.15787,-0.36003,-9.78016
3.52316,-0.15936,-0.36392,-9.75877
3.5332,-0.14874,-0.35883,-9.77478
3.54323,-0.14635,-0.34686,-9.78151
3.55327,-0.14709,-0.36407,-9.75263
3.56331,-0.15667,-0.35389,-9.76251
3.57335,-0.16116,-0.36377,-9.76011
3.58338,-0.13647,-0.35689,-9.76939
3.59342,-0.13782,-0.35524,-9.76311
3.60346,-0.1658,-0.3512,-9.75577
3.6135,-0.14949,-0.36272,-9.7447
3.62353,-0.13512,-0.3521,-9.75907
3.63357,-0.15083,-0.3491,-9.77373
3.64361,-0.16146,-0.35359,-9.7664
3.65365,-0.15607,-0.34746,-9.76924
3.66368,-0.15383,-0.35449,-9.74949
3.67372,-0.164,-0.35913,-9.75547
3.68376,-0.16176,-0.35434,-9.79408
3.6938,-0.14904,-0.35554,-9.76834
3.70383,-0.15996,-0.3494,-9.73812
3.71387,-0.17657,-0.35674,-9.77867
3.72391,-0.15682,-0.3494,-9.77852
3.73395,-0.14021,-0.35015,-9.75113
3.74398,-0.15069,-0.35524,-9.76236
3.75402,-0.15996,-0.35733,-9.77493
3.76406,-0.14754,-0.36272,-9.77343
3.7741,-0.13991,-0.34372,-9.74769
3.78413,-0.16056,-0.36018,-9.77433
3.79417,-0.15368,-0.36063,-9.77193
3.80421,-0.145,-0.35823,-9.74665
3.81425,-0.15323,-0.3527,-9.76819
3.82428,-0.16146,-0.37005,-9.76355
3.83432,-0.15832,-0.3524,-9.76774
3.84436,-0.1465,-0.34177,-9.75248
3.8544,-0.15607,-0.33743,-9.77044
3.86443,-0.17478,-0.35704,-9.74335
3.87447,-0.15966,-0.34881,-9.75158
3.88451,-0.14201,-0.34447,-9.77163
3.89455,-0.14575,-0.35868,-9.76744
3.90458,-0.14635,-0.36242,-9.75892
3.91462,-0.13168,-0.34716,-9.74545
3.92466,-0.11776,-0.34177,-9.74186
3.9347,-0.13497,-0.33743,-9.79618
3.94473,-0.13004,-0.32681,-9.764
3.95477,-0.14814,-0.32471,-9.74919
3.96481,-0.18525,-0.33953,-9.77897
3.97485,-0.21473,-0.3509,-9.78376
3.98488,-0.19722,-0.35644,-9.7459
3.99492,-0.21548,-0.38651,-9.75338
4.00496,-0.1854,-0.38846,-9.79782
4.015,-0.16146,-0.37649,-9.76385
4.02503,-0.12884,-0.36736,-9.75951
4.03507,-0.12091,-0.3723,-9.78884
4.04511,-0.09008,-0.38906,-9.77223
4.05515,-0.06853,-0.38262,-9.73812
4.06518,-0.10026,-0.38128,-9.76505
4.07522,-0.09921,-0.35778,-9.78226
4.08526,-0.13243,-0.33534,-9.73916
4.0953,-0.16355,-0.30586,-9.73692
4.10533,-0.19124,-0.29494,-9.7652
4.11537,-0.20171,-0.28641,-9.7664
4.12541,-0.19827,-0.30466,-9.75233
4.13545,-0.22057,-0.33279,-9.75173
4.14548,-0.2077,-0.35359,-9.77014
4.15552,-0.17358,-0.36182,-9.75727
4.16556,-0.15188,-0.37499,-9.75742
4.1756,-0.13408,-0.39175,-9.7646
4.18563,-0.13138,-0.40896,-9.7652
4.19567,-0.11672,-0.42243,-9.76715
4.20571,-0.11028,-0.4118,-9.77582
4.21575,-0.12644,-0.42587,-9.77268
4.22578,-0.16146,-0.42063,-9.75532
4.23582,-0.16819,-0.40088,-9.75428
4.24586,-0.16879,-0.39115,-9.81353
4.2559,-0.17104,-0.36646,-9.80949
4.26593,-0.19767,-0.34566,-9.76759
4.27597,-0.20036,-0.33624,-9.69173
4.28601,-0.17074,-0.32486,-9.74874
4.29605,-0.10849,-0.32292,-9.78824
4.30608,-0.07841,-0.29823,-9.75353
4.31612,-0.08799,-0.29898,-9.71896
4.32616,-0.11582,-0.2876,-9.71776
4.3362,-0.10145,-0.25887,-9.74964
4.34623,-0.10205,-0.24825,-9.75069
4.35627,-0.15547,-0.30122,-9.74081
4.36631,-0.20575,-0.32756,-9.74246
4.37635,-0.2273,-0.33833,-9.75742
4.38638,-0.23957,-0.3497,-9.78869
4.39642,-0.26082,-0.36631,-9.81398
4.40646,-0.26142,-0.42093,-9.79707
4.4165,-0.23329,-0.4552,-9.77328
4.42653,-0.2053,-0.49575,-9.80246
4.43657,-0.14949,-0.50563,-9.8282
4.44661,-0.11687,-0.51146,-9.79513
4.45665,-0.09457,-0.50308,-9.75667
4.46668,-0.05791,-0.46223,-9.77493
4.47672,-0.02903,-0.39444,-9.7655
4.48676,-0.05432,-0.33818,-9.73647
4.4968,-0.10011,-0.29733,-9.74784
4.50683,-0.15218,-0.26501,-9.79079
4.51687,-0.17538,-0.21982,-9.73408
4.52691,-0.19647,-0.19737,-9.68814
4.53695,-0.25977,-0.208,-9.7254
4.54698,-0.25109,-0.2065,-9.73019
4.55702,-0.21503,-0.21907,-9.71687
4.56706,-0.19213,-0.28087,-9.7649
4.5771,-0.18899,-0.35314,-9.79662
4.58713,-0.13198,-0.40791,-9.75398
4.59717,-0.08065,-0.44278,-9.75622
4.60721,-0.08574,-0.49874,-9.79887
4.61725,-0.09337,-0.52672,-9.81757
4.62728,-0.11552,-0.51281,-9.8074
4.63732,-0.12495,-0.50263,-9.8062
4.64736,-0.1667,-0.46956,-9.80171
4.6574,-0.2071,-0.45744,-9.77313
4.66743,-0.22565,-0.41584,-9.78196
4.67747,-0.2264,-0.37424,-9.79184
4.68751,-0.22461,-0.32322,-9.76984
4.69755,-0.20859,-0.30601,-9.73692
4.70758,-0.17702,-0.24735,-9.72166
4.71762,-0.12959,-0.23269,-9.72929
4.72766,-0.09607,-0.23613,-9.72375
4.7377,-0.08619,-0.26172,-9.71537
4.74773,-0.08604,-0.27159,-9.72809
4.75777,-0.07003,-0.31394,-9.7444
4.76781,-0.08918,-0.33085,-9.75802
4.77785,-0.11208,-0.35,-9.74904
4.78788,-0.14156,-0.36362,-9.75158
4.79792,-0.1667,-0.36272,-9.75966
4.80796,-0.19752,-0.39534,-9.764
4.818,-0.2071,-0.42931,-9.78795
4.82803,-0.21548,-0.44368,-9.80934
4.83807,-0.20381,-0.46358,-9.81278
4.84811,-0.20276,-0.45445,-9.79363
4.85814,-0.1878,-0.44547,-9.76505
4.86818,-0.16011,-0.42722,-9.78031
4.87822,-0.1248,-0.41884,-9.78031
4.88826,-0.11492,-0.40118,-9.75413
4.89829,-0.12614,-0.38607,-9.78076
4.90833,-0.11776,-0.35135,-9.76041
4.91837,-0.11462,-0.32202,-9.72225
4.92841,-0.13288,-0.32352,-9.74694
4.93844,-0.15248,-0.3078,-9.75682
4.94848,-0.16415,-0.27488,-9.72794
4.95852,-0.18331,-0.25304,-9.72734
4.96856,-0.18794,-0.27503,-9.76804
4.97859,-0.18286,-0.3078,-9.76789
4.98863,-0.19258,-0.34267,-9.72899
4.99867,-0.19109,-0.38053,-9.75996
5.00871,-0.17747,-0.41599,-9.81638
5.01874,-0.15547,-0.42407,-9.80695
5.02878,-0.13916,-0.42931,-9.76969
5.03882,-0.13378,-0.45909,-9.78151
5.04886,-0.13827,-0.46268,-9.80126
5.05889,-0.11851,-0.44203,-9.79094
5.06893,-0.14006,-0.44293,-9.78136
5.07897,-0.15981,-0.41899,-9.77163
5.08901,-0.1661,-0.37963,-9.75817
5.09904,-0.15772,-0.34207,-9.76116
5.10908,-0.15652,-0.29389,-9.76909
5.11912,-0.16236,-0.27159,-9.75981
5.12916,-0.17822,-0.2704,-9.69502
5.13919,-0.16071,-0.27488,-9.73048
5.14923,-0.14036,-0.28656,-9.75622
5.15927,-0.15502,-0.31499,-9.75503
5.16931,-0.1441,-0.3503,-9.72989
5.17934,-0.14365,-0.37365,-9.78016
5.18938,-0.12315,-0.37499,-9.79633
5.19942,-0.11328,-0.34312,-9.77313
5.20946,-0.13946,-0.35614,-9.73856
5.21949,-0.16819,-0.4112,-9.73602
5.22953,-0.13033,-0.38966,-9.76595
5.23957,-0.1025,-0.35823,-9.75562
5.24961,-0.15547,-0.34013,-9.75847
5.25964,-0.20396,-0.32531,-9.76535
5.26968,-0.16595,-0.29793,-9.71941
5.27972,-0.13632,-0.30361,-9.73797
5.28976,-0.15098,-0.33534,-9.77463
5.29979,-0.19318,-0.34387,-9.74994
5.30983,-0.17104,-0.32786,-9.70594
5.31987,-0.11328,-0.33444,-9.75308
5.33053,-0.09592,-0.31349,-9.77223
5.34057,-0.123,-0.28775,-9.76326
5.35061,-0.14275,-0.28596,-9.7875
5.36065,-0.16924,-0.29972,-9.79214
5.37068,-0.19617,-0.35015,-9.7634
5.38072,-0.2053,-0.37933,-9.75413
5.39076,-0.22431,-0.41674,-9.77133
5.4008,-0.18944,-0.42362,-9.75577
5.41083,-0.15622,-0.42168,-9.76685
5.42087,-0.1254,-0.41764,-9.76819
5.43091,-0.0808,-0.40746,-9.75577
5.44095,-0.06584,-0.40507,-9.8086
5.45098,-0.07871,-0.41225,-9.78346
5.46102,-0.09816,-0.42632,-9.77059
5.47106,-0.13886,-0.43754,-9.75921
5.4811,-0.17029,-0.42303,-9.78151
5.49113,-0.18869,-0.37514,-9.79543
5.50117,-0.21159,-0.3503,-9.77268
5.51121,-0.23508,-0.32337,-9.75951
5.52125,-0.2288,-0.32112,-9.74335
5.53128,-0.2062,-0.33085,-9.75682
5.54132,-0.19273,-0.3503,-9.78181
5.55136,-0.15787,-0.34072,-9.74575
5.5614,-0.13856,-0.34536,-9.75069
5.57143,-0.09397,-0.3295,-9.75712
5.58147,-0.07661,-0.31918,-9.76625
5.59151,-0.09038,-0.31095,-9.74485
5.60155,-0.12599,-0.32905,-9.7432
5.61158,-0.13467,-0.36332,-9.75188
5.62162,-0.14216,-0.36946,-9.75562
5.63166,-0.16296,-0.36871,-9.75323
5.6417,-0.19812,-0.37724,-9.75892
5.65173,-0.19857,-0.35285,-9.76206
5.66177,-0.18615,-0.34387,-9.76026
5.67181,-0.16939,-0.35943,-9.77523
5.68185,-0.17508,-0.38532,-9.75398
5.69188,-0.15158,-0.41614,-9.76161
5.70192,-0.1251,-0.44412,-9.78136
5.71196,-0.11597,-0.42736,-9.79393
5.722,-0.13228,-0.40612,-9.78061
5.73203,-0.13617,-0.38277,-9.76266
5.74207,-0.13422,-0.36631,-9.76804
5.75211,-0.14201,-0.35823,-9.76715
5.76215,-0.13452,-0.33863,-9.76505
5.77218,-0.17672,-0.33833,-9.76804
5.78222,-0.18585,-0.32726,-9.75413
5.79226,-0.17986,-0.30451,-9.75128
5.8023,-0.16774,-0.30406,-9.76924
5.81233,-0.17268,-0.3078,-9.75907
5.82237,-0.16131,-0.30586,-9.74904
5.83241,-0.15532,-0.33474,-9.75577
5.84245,-0.14485,-0.3491,-9.76879
5.85248,-0.12285,-0.37245,-9.77163
5.86252,-0.13752,-0.40492,-9.76939
5.87256,-0.12899,-0.4148,-9.74874
5.8826,-0.13901,-0.39235,-9.76475
5.89263,-0.14769,-0.37394,-9.77523
5.90267,-0.15113,-0.37694,-9.77029
5.91271,-0.14724,-0.37275,-9.76804
5.92275,-0.17762,-0.40118,-9.77582
5.93278,-0.17508,-0.3913,-9.75458
5.94282,-0.17942,-0.36975,-9.74545
5.95286,-0.16595,-0.37679,-9.75892
5.9629,-0.16535,-0.35105,-9.7652
5.97293,-0.14889,-0.3319,-9.767
5.98297,-0.13408,-0.31663,-9.75248
5.99301,-0.1239,-0.331,-9.75368
6.00367,-0.14455,-0.3494,-9.75697
6.01371,-0.14455,-0.3494,-9.75697
6.02375,-0.12974,-0.36571,-9.76729
6.03379,-0.1248,-0.35614,-9.76116
6.04382,-0.13168,-0.35704,-9.75084
6.05386,-0.14365,-0.34821,-9.75697
6.0639,-0.16535,-0.34955,-9.77133
6.07394,-0.15517,-0.35704,-9.76759
6.08397,-0.17029,-0.37739,-9.77747
6.09401,-0.1664,-0.39115,-9.76161
6.10405,-0.16984,-0.40312,-9.75413
6.11409,-0.17403,-0.39474,-9.7637
6.12412,-0.17523,-0.38547,-9.78136
6.13416,-0.16221,-0.36212,-9.76804
6.1442,-0.1438,-0.35928,-9.7459
6.15424,-0.14949,-0.37469,-9.76385
6.16427,-0.14679,-0.36227,-9.77672
6.17431,-0.13557,-0.36781,-9.76236
6.18435,-0.13318,-0.35973,-9.75996
6.19439,-0.13976,-0.36242,-9.76385
6.20442,-0.13482,-0.33818,-9.74874
6.21446,-0.14575,-0.33743,-9.75353
6.2245,-0.15652,-0.3322,-9.77014
6.23454,-0.16056,-0.34102,-9.76445
6.24457,-0.15757,-0.34087,-9.75263
6.25461,-0.16146,-0.3497,-9.7655
6.26465,-0.15981,-0.34447,-9.76999
6.27469,-0.16236,-0.37529,-9.75248
6.28472,-0.16864,-0.37933,-9.77927
6.29476,-0.15069,-0.36781,-9.76565
6.3048,-0.1465,-0.37813,-9.76954
6.31484,-0.14231,-0.38023,-9.78016
6.32487,-0.15233,-0.38262,-9.76685
6.33491,-0.14799,-0.39654,-9.75323
6.34495,-0.13827,-0.38367,-9.7646
6.35499,-0.14814,-0.38098,-9.7664
6.36502,-0.14425,-0.3735,-9.77163
6.37506,-0.14934,-0.35479,-9.75338
6.3851,-0.14275,-0.34671,-9.76445
6.39514,-0.14485,-0.34162,-9.77074
6.40517,-0.16251,-0.34895,-9.75996
6.41521,-0.15428,-0.3512,-9.74799
6.42525,-0.16325,-0.35778,-9.75488
6.43529,-0.16026,-0.35718,-9.76221
6.44532,-0.15098,-0.35644,-9.76595
6.45536,-0.14335,-0.35644,-9.76221
6.4654,-0.15817,-0.36946,-9.74709
6.47544,-0.15128,-0.37843,-9.76116
6.48547,-0.15458,-0.38382,-9.75727
6.49551,-0.15622,-0.37783,-9.7646
6.50555,-0.15054,-0.37125,-9.77014
6.51559,-0.16251,-0.37394,-9.77418
6.52562,-0.15158,-0.38517,-9.77657
6.53566,-0.15906,-0.3696,-9.75772
6.5457,-0.15981,-0.37065,-9.76954
6.55574,-0.16281,-0.36422,-9.75577
6.56577,-0.14949,-0.35823,-9.75054
6.57581,-0.14485,-0.36437,-9.7441
6.58585,-0.14949,-0.36003,-9.76595
6.59589,-0.14245,-0.35344,-9.77268
6.60592,-0.13452,-0.34491,-9.75667
6.61596,-0.14679,-0.3491,-9.75697
6.626,-0.16236,-0.36856,-9.76505
6.63604,-0.14844,-0.35853,-9.75862
6.64607,-0.13333,-0.35509,-9.75398
6.65611,-0.14874,-0.36377,-9.75502
6.66615,-0.15458,-0.36033,-9.76355
6.67619,-0.15278,-0.36227,-9.75712
6.68622,-0.15188,-0.3696,-9.75488
6.69626,-0.16131,-0.37439,-9.77523
6.7063,-0.1661,-0.36242,-9.76056
6.71634,-0.15278,-0.35225,-9.77942
6.72637,-0.15622,-0.36167,-9.77134
6.73641,-0.16625,-0.38098,-9.75772
6.74645,-0.14201,-0.37783,-9.75652
6.75649,-0.14904,-0.35763,-9.77283
6.76652,-0.15652,-0.36437,-9.77702
6.77656,-0.15143,-0.35793,-9.77553
6.7866,-0.14425,-0.35689,-9.74141
6.79664,-0.15188,-0.35988,-9.75293
6.80667,-0.15652,-0.36108,-9.77268
6.81671,-0.15218,-0.36242,-9.7649
6.82675,-0.14859,-0.35644,-9.76984
6.83679,-0.15173,-0.35285,-9.75473
6.84682,-0.1652,-0.36018,-9.74545
6.85686,-0.14724,-0.36556,-9.74739
6.8669,-0.15293,-0.35733,-9.78361
6.87694,-0.14635,-0.36137,-9.76909
6.88697,-0.16715,-0.36856,-9.75278
6.89701,-0.14979,-0.372,-9.767
6.90705,-0.1456,-0.36676,-9.76565
6.91709,-0.14455,-0.35943,-9.76311
6.92712,-0.16146,-0.35793,-9.77702
6.93716,-0.16535,-0.36377,-9.75981
6.9472,-0.14769,-0.35494,-9.76161
6.95724,-0.15039,-0.36212,-9.75203
6.96727,-0.15817,-0.36182,-9.75383
6.97731,-0.15458,-0.36482,-9.77972
6.98735,-0.13437,-0.35674,-9.76206
6.99739,-0.14874,-0.36063,-9.74575
7.00742,-0.15248,-0.38128,-9.75996
7.01746,-0.14859,-0.36317,-9.76326
7.0275,-0.14874,-0.35718,-9.74829
7.03754,-0.1426,-0.34626,-9.75951
7.04757,-0.16101,-0.36033,-9.76251
7.05761,-0.1637,-0.36227,-9.77134
7.06765,-0.15054,-0.36542,-9.75951
7.07769,-0.14964,-0.37035,-9.76535
7.08772,-0.15502,-0.37005,-9.76236
7.09776,-0.15817,-0.36721,-9.75817
7.1078,-0.16071,-0.36227,-9.75951
7.11784,-0.15069,-0.36482,-9.74934
7.12787,-0.14979,-0.36497,-9.74829
7.13791,-0.17044,-0.35913,-9.76685
7.14795,-0.15263,-0.35464,-9.76969
7.15799,-0.15054,-0.35988,-9.75293
7.16802,-0.145,-0.35883,-9.76445
7.17806,-0.14724,-0.36482,-9.75428
7.1881,-0.14275,-0.36362,-9.76131
7.19814,-0.15951,-0.36302,-9.77418
7.20817,-0.15158,-0.36317,-9.78555
7.21821,-0.14769,-0.36616,-9.75712
7.22825,-0.14425,-0.36362,-9.75308
7.23829,-0.14949,-0.35943,-9.75921
7.24832,-0.14949,-0.35584,-9.76595
7.25836,-0.15413,-0.36302,-9.77089
7.2684,-0.16655,-0.35718,-9.76296
7.27844,-0.15098,-0.36616,-9.74605
7.28847,-0.16206,-0.36242,-9.77149
7.29851,-0.15308,-0.36631,-9.77732
7.30855,-0.1441,-0.34013,-9.75338
7.31859,-0.15458,-0.35404,-9.75637
7.32862,-0.15383,-0.35494,-9.76819
7.33866,-0.13722,-0.36033,-9.76819
7.3487,-0.14769,-0.36272,-9.75173
7.35874,-0.15966,-0.37125,-9.75503
7.36877,-0.16026,-0.36467,-9.76999
7.37881,-0.16146,-0.35838,-9.77283
7.38885,-0.14186,-0.36631,-9.75996
7.39889,-0.1462,-0.36646,-9.75532
7.40892,-0.16281,-0.37664,-9.7631
7.41896,-0.14709,-0.36811,-9.7673
7.429,-0.14036,-0.35314,-9.76984
7.43904,-0.1664,-0.36571,-9.78106
7.44907,-0.1646,-0.37604,-9.75682
7.45911,-0.14769,-0.36467,-9.75233
7.46915,-0.1462,-0.34761,-9.76759
7.47919,-0.16056,-0.35704,-9.77672
7.48922,-0.16131,-0.36631,-9.76834
7.49926,-0.14605,-0.36452,-9.76939
7.5093,-0.15323,-0.34761,-9.75113
7.51934,-0.1432,-0.36302,-9.75323
7.52937,-0.15383,-0.36721,-9.75712
7.53941,-0.15278,-0.3527,-9.75323
7.54945,-0.14335,-0.36571,-9.76864
7.55949,-0.14919,-0.3702,-9.76685
7.56953,-0.15443,-0.36227,-9.7643
7.57956,-0.14694,-0.36152,-9.75413
7.5896,-0.14799,-0.35075,-9.77837
7.59964,-0.15458,-0.36856,-9.75921
7.60968,-0.15069,-0.36302,-9.75682
7.61971,-0.14964,-0.37095,-9.7655
7.62975,-0.15562,-0.35539,-9.75802
7.63979,-0.16011,-0.35733,-9.76759
7.64983,-0.15517,-0.36063,-9.77582
7.65986,-0.14739,-0.36586,-9.75637
7.6699,-0.15727,-0.35659,-9.75398
7.67994,-0.14994,-0.36437,-9.76834
7.68998,-0.14694,-0.35464,-9.75188
7.70001,-0.14874,-0.35449,-9.76236
7.71005,-0.15083,-0.36167,-9.76176
7.72009,-0.15248,-0.36212,-9.75039
7.73013,-0.15547,-0.36601,-9.75248
7.74016,-0.17029,-0.35135,-9.75398
7.7502,-0.15772,-0.35434,-9.77283
7.76024,-0.1441,-0.35853,-9.76311
7.77028,-0.16445,-0.36227,-9.76535
7.78031,-0.145,-0.36108,-9.7664
7.79035,-0.16101,-0.36975,-9.75577
7.80039,-0.16535,-0.36182,-9.75847
7.81043,-0.16535,-0.36616,-9.77149
7.82046,-0.15113,-0.36167,-9.7634
7.8305,-0.15458,-0.35614,-9.75069
7.84054,-0.15532,-0.36916,-9.75622
7.85058,-0.15517,-0.36751,-9.77493
7.86061,-0.15009,-0.35449,-9.76909
7.87065,-0.16221,-0.35748,-9.7658
7.88069,-0.14964,-0.35898,-9.7664
7.89073,-0.14395,-0.3702,-9.75607
7.90076,-0.15143,-0.35285,-9.75487
7.9108,-0.15293,-0.36347,-9.76251
7.92084,-0.16296,-0.36512,-9.76176
7.93088,-0.15787,-0.35479,-9.76191
7.94091,-0.15278,-0.36152,-9.76071
7.95095,-0.15413,-0.36706,-9.7655
7.96099,-0.16146,-0.37035,-9.75652
7.97103,-0.16849,-0.35943,-9.75742
7.98106,-0.14066,-0.36571,-9.78615
7.9911,-0.15233,-0.35838,-9.77208
8.00114,-0.1462,-0.35674,-9.75278
8.01118,-0.15847,-0.37903,-9.75338
8.02121,-0.15054,-0.37185,-9.77253
8.03125,-0.14096,-0.35629,-9.77343
8.04129,-0.15173,-0.36646,-9.76206
8.05133,-0.14485,-0.36676,-9.76236
8.06136,-0.1649,-0.36003,-9.75966
8.0714,-0.14874,-0.36347,-9.76236
8.08144,-0.1447,-0.35838,-9.77463
8.09148,-0.14919,-0.35928,-9.76415
8.10151,-0.15547,-0.36556,-9.75323
8.11155,-0.14994,-0.35718,-9.76041
8.12159,-0.15473,-0.34955,-9.76116
8.13163,-0.14635,-0.3518,-9.75951
8.14166,-0.15039,-0.35015,-9.77373
8.1517,-0.14275,-0.36811,-9.78435
8.16174,-0.15173,-0.37409,-9.75652
8.17178,-0.15293,-0.35988,-9.76834
8.18181,-0.16296,-0.36796,-9.75727
8.19185,-0.15862,-0.37559,-9.76161
8.20189,-0.14919,-0.37514,-9.76445
8.21193,-0.15338,-0.37649,-9.76834
8.22196,-0.14141,-0.36452,-9.74754
8.232,-0.1637,-0.36601,-9.73797
8.24204,-0.17029,-0.37215,-9.77463
8.25208,-0.16191,-0.36332,-9.78241
8.26211,-0.1459,-0.35898,-9.75832
8.27215,-0.15652,-0.35539,-9.76116
8.28219,-0.15502,-0.35793,-9.7655
8.29223,-0.14275,-0.34821,-9.77388
8.30226,-0.14485,-0.36063,-9.76056
8.3123,-0.16071,-0.36482,-9.76595
8.32234,-0.14814,-0.35853,-9.77149
8.33238,-0.14605,-0.35509,-9.76161
8.34241,-0.14724,-0.36078,-9.77059
8.35245,-0.15083,-0.36392,-9.7655
8.36249,-0.15323,-0.36841,-9.75308
8.37253,-0.15892,-0.37843,-9.75592
8.38256,-0.16041,-0.36212,-9.76715
8.3926,-0.15981,-0.37125,-9.76011
8.40264,-0.14395,-0.36437,-9.76221
8.41268,-0.14694,-0.35748,-9.7664
8.42272,-0.15697,-0.34895,-9.75592
8.43275,-0.15981,-0.37529,-9.75622
8.44279,-0.15308,-0.36586,-9.76894
8.45283,-0.15667,-0.35524,-9.78136
8.46287,-0.14949,-0.35778,-9.76266
8.4729,-0.16191,-0.3717,-9.75383
8.48294,-0.15338,-0.36661,-9.7673
8.49298,-0.15098,-0.35943,-9.75562
8.50302,-0.14874,-0.35943,-9.74724
8.51305,-0.15069,-0.36137,-9.77193
8.52309,-0.15308,-0.3723,-9.77163
8.53313,-0.15218,-0.36123,-9.74395
8.54317,-0.15338,-0.36646,-9.75458
8.5532,-0.15622,-0.36556,-9.76475
8.56324,-0.14934,-0.36377,-9.7646
8.57328,-0.14275,-0.36063,-9.77283
8.58332,-0.16236,-0.36167,-9.75892
8.59335,-0.15502,-0.36571,-9.76101
8.60339,-0.15248,-0.36123,-9.76236
8.61343,-0.14515,-0.37469,-9.75517
8.62347,-0.15383,-0.36467,-9.76056
8.6335,-0.15772,-0.3711,-9.76011
8.64354,-0.14275,-0.36811,-9.78435
8.65358,-0.15009,-0.35374,-9.76864
8.66362,-0.15383,-0.3711,-9.74769
8.67365,-0.16894,-0.36661,-9.7435
8.68369,-0.15413,-0.35883,-9.75652
8.69373,-0.1456,-0.36407,-9.77074
8.70377,-0.15233,-0.36646,-9.76595
8.7138,-0.14635,-0.35584,-9.75502
8.72384,-0.14919,-0.3527,-9.76206
8.73388,-0.15682,-0.35838,-9.74889
8.74392,-0.15667,-0.37065,-9.77612
8.75395,-0.15682,-0.36886,-9.77223
8.76399,-0.14425,-0.36152,-9.75667
8.77403,-0.145,-0.36108,-9.75802
8.78407,-0.15742,-0.3723,-9.76894
8.7941,-0.16161,-0.35718,-9.7637
8.80414,-0.15622,-0.36362,-9.74709
8.81418,-0.16086,-0.35539,-9.76266
8.82422,-0.17777,-0.353,-9.77388
8.83425,-0.16161,-0.36137,-9.75682
8.84429,-0.15517,-0.36227,-9.75128
8.85433,-0.15487,-0.37619,-9.77104
8.86437,-0.15981,-0.36512,-9.77702
8.8744,-0.14186,-0.36601,-9.75966
8.88444,-0.16041,-0.36975,-9.75024
8.89448,-0.14709,-0.35718,-9.76281
8.90452,-0.15398,-0.35285,-9.7655
8.91455,-0.13946,-0.35404,-9.77104
8.92459,-0.1465,-0.35689,-9.77777
8.93463,-0.15024,-0.36601,-9.75398
8.94467,-0.16281,-0.35823,-9.76071
8.9547,-0.14904,-0.35689,-9.7845
8.96474,-0.145,-0.35748,-9.75996
8.97478,-0.15308,-0.35374,-9.74799
8.98482,-0.14949,-0.34925,-9.75488
8.99485,-0.15697,-0.36781,-9.75128
9.00489,-0.14919,-0.35928,-9.75877
9.01493,-0.15398,-0.36197,-9.77627
9.02497,-0.16221,-0.36347,-9.76415
9.03501,-0.15158,-0.36362,-9.76251
9.04504,-0.14425,-0.36287,-9.7438
9.05508,-0.1465,-0.35928,-9.75203
9.06512,-0.16251,-0.36033,-9.77178
9.07515,-0.15577,-0.36242,-9.7643
9.08519,-0.14949,-0.36661,-9.75323
9.09523,-0.16086,-0.36497,-9.75832
9.10527,-0.15263,-0.35988,-9.75712
9.11531,-0.14724,-0.36257,-9.75203
9.12534,-0.16116,-0.36975,-9.76385
9.13538,-0.14724,-0.36931,-9.76251
9.14542,-0.13886,-0.37005,-9.76221
9.15546,-0.1453,-0.36571,-9.76685
9.16549,-0.14904,-0.34641,-9.7667
9.17553,-0.14201,-0.35165,-9.75503
9.18557,-0.16325,-0.36108,-9.77478
9.1956,-0.16281,-0.36257,-9.76744
9.20564,-0.15981,-0.36287,-9.76715
9.21568,-0.1631,-0.35195,-9.7649
9.22572,-0.15562,-0.34477,-9.76565
9.23576,-0.16954,-0.34192,-9.75832
9.24579,-0.15487,-0.35509,-9.76535
9.25583,-0.15757,-0.35569,-9.78031
9.26587,-0.16116,-0.36152,-9.75832
9.27591,-0.1438,-0.372,-9.74455
9.28594,-0.15368,-0.37679,-9.75488
9.29598,-0.14859,-0.37409,-9.76715
9.30602,-0.1435,-0.36347,-9.77268
9.31606,-0.13767,-0.37454,-9.76595
9.32672,-0.14784,-0.36108,-9.75577
9.33676,-0.14784,-0.36108,-9.75577
9.3468,-0.15308,-0.35075,-9.7453
9.35683,-0.15413,-0.35434,-9.7631
9.36687,-0.15951,-0.36123,-9.77463
9.37691,-0.17134,-0.34432,-9.75802
9.38695,-0.15532,-0.3515,-9.75173
9.39698,-0.15862,-0.35883,-9.75458
9.40702,-0.1444,-0.35763,-9.76355
9.41706,-0.14964,-0.36512,-9.77268
9.4271,-0.15443,-0.36676,-9.78076
9.43713,-0.15024,-0.35359,-9.74305
9.44717,-0.15562,-0.36916,-9.7462
9.45721,-0.15772,-0.37409,-9.77837
9.46725,-0.14874,-0.35868,-9.76176
9.47728,-0.15248,-0.36676,-9.7655
9.48732,-0.16221,-0.37155,-9.75787
9.49736,-0.16864,-0.36197,-9.75577
9.5074,-0.16071,-0.35524,-9.77508
9.51743,-0.15981,-0.34955,-9.78091
9.52747,-0.15921,-0.35748,-9.75907
9.53751,-0.15966,-0.3699,-9.75218
9.54755,-0.15996,-0.36556,-9.75293
9.55758,-0.15892,-0.35569,-9.77104
9.56762,-0.15383,-0.35778,-9.75832
9.57766,-0.14754,-0.36946,-9.77044
9.5877,-0.15039,-0.36886,-9.77912
9.59773,-0.13542,-0.36033,-9.7673
9.60777,-0.14934,-0.36093,-9.74754
9.61781,-0.16789,-0.36257,-9.74754
9.62785,-0.14919,-0.36571,-9.75383
9.63788,-0.16221,-0.3696,-9.76744
9.64792,-0.16625,-0.36078,-9.7658
9.65796,-0.16086,-0.36646,-9.74889
9.668,-0.1646,-0.35943,-9.74709
9.67803,-0.16026,-0.37035,-9.7634
9.68807,-0.15024,-0.35838,-9.77882
9.69811,-0.16041,-0.36302,-9.77268
9.70815,-0.15637,-0.36437,-9.76685
9.71818,-0.14335,-0.35614,-9.75143
9.72822,-0.14036,-0.372,-9.75951
9.73826,-0.14186,-0.3503,-9.77538
9.7483,-0.15263,-0.353,-9.76729
9.75833,-0.15936,-0.36452,-9.75921
9.76837,-0.14335,-0.36093,-9.75936
9.77841,-0.16655,-0.35778,-9.74799
9.78845,-0.16131,-0.36137,-9.75892
9.79848,-0.15128,-0.36197,-9.76954
9.80852,-0.15218,-0.36347,-9.77208
9.81856,-0.14664,-0.35135,-9.74859
9.8286,-0.15248,-0.35898,-9.75158
9.83863,-0.15473,-0.36946,-9.75802
9.84867,-0.15308,-0.36586,-9.76266
9.85871,-0.14006,-0.36212,-9.77089
9.86875,-0.1432,-0.37918,-9.76715
9.87878,-0.16146,-0.36033,-9.74859
9.88882,-0.15966,-0.35913,-9.76774
9.89886,-0.15682,-0.37365,-9.76385
9.9089,-0.16086,-0.35584,-9.75832
9.91893,-0.164,-0.3506,-9.75084
9.92897,-0.15562,-0.36452,-9.77134
9.93901,-0.14216,-0.36063,-9.77672
9.94905,-0.15712,-0.36841,-9.76595
9.95908,-0.15547,-0.36676,-9.76759
9.96912,-0.15772,-0.36123,-9.76924
9.97916,-0.14709,-0.36646,-9.76759
9.9892,-0.14186,-0.36018,-9.76176
9.99923,-0.15263,-0.37065,-9.76685
10.0099,-0.15263,-0.37065,-9.76685
10.01994,-0.14889,-0.36227,-9.7634
10.02997,-0.14859,-0.34716,-9.75772
10.04001,-0.17163,-0.36063,-9.75398
10.05005,-0.17223,-0.36212,-9.75847
10.06009,-0.15248,-0.36137,-9.7664
10.07012,-0.16086,-0.36347,-9.7661
10.08016,-0.15682,-0.35853,-9.76924
10.0902,-0.1658,-0.36452,-9.75039
10.10024,-0.14874,-0.36332,-9.76655
10.11027,-0.13931,-0.36182,-9.76385
10.12031,-0.15697,-0.35584,-9.77193
10.13035,-0.14964,-0.35509,-9.77358
10.14039,-0.15039,-0.34925,-9.75443
10.15042,-0.14919,-0.34402,-9.77493
10.16046,-0.15532,-0.36108,-9.77568
10.1705,-0.17104,-0.36212,-9.77852
10.18054,-0.17328,-0.35704,-9.75757
10.19058,-0.15996,-0.35599,-9.75024
10.20061,-0.16041,-0.35748,-9.76939
10.21065,-0.17313,-0.36018,-9.76116
10.22069,-0.15039,-0.36033,-9.76086
10.23073,-0.15248,-0.36302,-9.75083
10.24076,-0.15128,-0.37634,-9.76161
10.2508,-0.15173,-0.37125,-9.75263
10.26084,-0.15308,-0.36227,-9.74934
10.27088,-0.15143,-0.37095,-9.75502
10.28091,-0.15039,-0.3527,-9.76251
10.29095,-0.13692,-0.35344,-9.76041
10.30099,-0.15921,-0.36123,-9.77972
10.31103,-0.15083,-0.36437,-9.76595
10.32106,-0.14635,-0.36452,-9.75069
10.3311,-0.15832,-0.36108,-9.75921
10.34114,-0.15817,-0.35689,-9.76759
10.35118,-0.15203,-0.36182,-9.75757
10.36121,-0.15847,-0.36452,-9.75084
10.37125,-0.16011,-0.36616,-9.764
10.38129,-0.14305,-0.36571,-9.75353
10.39133,-0.14275,-0.35823,-9.74889
10.40136,-0.15323,-0.36227,-9.76565
10.4114,-0.14739,-0.36691,-9.7854
10.42144,-0.14784,-0.3735,-9.75682
10.43148,-0.16056,-0.36452,-9.74919
10.44151,-0.17687,-0.36482,-9.75787
10.45155,-0.16161,-0.37888,-9.75772
10.46159,-0.15906,-0.3515,-9.75517
10.47163,-0.15892,-0.3696,-9.7667
10.48166,-0.15817,-0.37439,-9.7658
10.4917,-0.15039,-0.36751,-9.75996
10.50174,-0.15502,-0.36512,-9.75577
10.51178,-0.13647,-0.35255,-9.76056
10.52181,-0.15323,-0.36197,-9.76385
10.53185,-0.15158,-0.35659,-9.75652
10.54189,-0.14724,-0.35644,-9.76161
10.55193,-0.16759,-0.36527,-9.767
10.56196,-0.15697,-0.34686,-9.74844
10.572,-0.14889,-0.35374,-9.77388
10.58204,-0.16116,-0.35599,-9.7667
10.59208,-0.1634,-0.35314,-9.75847
10.60211,-0.15667,-0.35733,-9.75832
10.61215,-0.14889,-0.3705,-9.77014
10.62219,-0.15652,-0.36048,-9.76954
10.63223,-0.14485,-0.35943,-9.76385
10.64226,-0.14216,-0.35165,-9.76146
10.6523,-0.15667,-0.35689,-9.7456
10.66234,-0.15832,-0.35404,-9.75383
10.67238,-0.14216,-0.35853,-9.7658
10.68241,-0.14964,-0.36631,-9.78705
10.69245,-0.15173,-0.35614,-9.76939
10.70249,-0.14784,-0.3699,-9.76191
10.71253,-0.15712,-0.3732,-9.77403
10.72256,-0.1432,-0.3527,-9.75428
10.7326,-0.14814,-0.34581,-9.7646
10.74264,-0.14485,-0.36871,-9.77253
10.75268,-0.15473,-0.35344,-9.76266
10.76271,-0.14694,-0.35868,-9.75592
10.77275,-0.14979,-0.36272,-9.76161
10.78279,-0.15428,-0.36272,-9.77807
10.79283,-0.14664,-0.36377,-9.76146
10.80286,-0.16131,-0.35943,-9.75054
10.8129,-0.15757,-0.36916,-9.76595
10.82294,-0.1655,-0.35195,-9.77163
10.83298,-0.1652,-0.36332,-9.76415
10.84301,-0.16774,-0.35913,-9.76879
10.85305,-0.15637,-0.35973,-9.77029
10.86309,-0.164,-0.37305,-9.75577
10.87313,-0.14964,-0.37514,-9.7634
10.88317,-0.15996,-0.36392,-9.76715
10.8932,-0.16056,-0.35988,-9.76026
10.90324,-0.16116,-0.36362,-9.75323
10.91328,-0.15772,-0.36931,-9.76505
10.92332,-0.15757,-0.35793,-9.75772
10.93335,-0.15517,-0.36332,-9.75233
10.94339,-0.1438,-0.35793,-9.76655
10.95343,-0.15966,-0.35255,-9.77343
10.96347,-0.15921,-0.36242,-9.74889
10.9735,-0.15353,-0.36467,-9.76774
10.98354,-0.16595,-0.35823,-9.77912
10.99358,-0.15203,-0.36152,-9.76011
11.00362,-0.16161,-0.3729,-9.77418
11.01365,-0.16251,-0.37005,-9.77089
11.02369,-0.1465,-0.35644,-9.75981
11.03373,-0.15338,-0.34776,-9.75667
11.04377,-0.14829,-0.35689,-9.77403
11.0538,-0.1646,-0.38232,-9.77029
11.06384,-0.15742,-0.36287,-9.75712
11.07388,-0.15547,-0.35255,-9.77104
11.08392,-0.16535,-0.36527,-9.7652
11.09395,-0.1634,-0.35509,-9.75637
11.10399,-0.15458,-0.37379,-9.75532
11.11403,-0.13632,-0.37125,-9.78181
11.12407,-0.14305,-0.36362,-9.77867
11.1341,-0.15278,-0.372,-9.73707
11.14414,-0.15173,-0.36452,-9.73752
11.15418,-0.14635,-0.38786,-9.78884
11.16422,-0.14545,-0.35988,-9.78316
11.17425,-0.14919,-0.34866,-9.75353
11.18429,-0.16296,-0.36123,-9.76281
11.19433,-0.14814,-0.37484,-9.77089
11.20437,-0.12689,-0.35494,-9.75577
11.2144,-0.15652,-0.35165,-9.74216
11.22444,-0.16969,-0.35569,-9.75278
11.23448,-0.1667,-0.35314,-9.75383
11.24452,-0.13767,-0.35359,-9.76819
11.25455,-0.13841,-0.3524,-9.77687
11.26459,-0.16146,-0.36916,-9.75248
11.27463,-0.18091,-0.35374,-9.75428
11.28467,-0.15502,-0.36766,-9.76056
11.2947,-0.15847,-0.3717,-9.77762
11.30474,-0.14859,-0.38621,-9.75817
11.31478,-0.14575,-0.38681,-9.75413
11.32482,-0.1453,-0.36706,-9.77792
11.33485,-0.16505,-0.35569,-9.7857
11.34489,-0.15877,-0.36167,-9.76445
11.35493,-0.14425,-0.38038,-9.78001
11.36497,-0.15562,-0.36931,-9.73722
11.375,-0.14605,-0.35763,-9.72884
11.38504,-0.16296,-0.34117,-9.78031
11.39508,-0.15592,-0.34566,-9.77074
11.40512,-0.15487,-0.34551,-9.73228
11.41515,-0.14021,-0.35614,-9.75622
11.42519,-0.15353,-0.36437,-9.78061
11.43523,-0.16221,-0.34895,-9.76819
11.44527,-0.15039,-0.36392,-9.75024
11.45531,-0.15413,-0.36212,-9.75712
11.46534,-0.16026,-0.37903,-9.75936
11.47538,-0.1432,-0.36302,-9.75921
11.48542,-0.14216,-0.36452,-9.77867
11.49545,-0.15817,-0.36317,-9.77927
11.50549,-0.15802,-0.3527,-9.76744
11.51553,-0.14979,-0.37529,-9.75024
11.52557,-0.15323,-0.3723,-9.75877
11.53561,-0.16116,-0.37335,-9.75039
11.54564,-0.16221,-0.35898,-9.7649
11.55568,-0.14066,-0.36586,-9.77059
11.56572,-0.14081,-0.35464,-9.76041
11.57575,-0.13108,-0.36108,-9.76535
11.58579,-0.13078,-0.3506,-9.77298
11.59583,-0.13782,-0.33833,-9.76326
11.60587,-0.1441,-0.36063,-9.75098
11.61591,-0.14335,-0.35988,-9.74575
11.62594,-0.1432,-0.36721,-9.76834
11.63598,-0.15173,-0.35614,-9.77014
11.64602,-0.15502,-0.3491,-9.74156
11.65606,-0.18046,-0.34925,-9.75607
11.66609,-0.16789,-0.35883,-9.75697
11.67613,-0.1465,-0.35898,-9.75682
11.68617,-0.15712,-0.37798,-9.77702
11.69621,-0.16655,-0.38202,-9.77597
11.70624,-0.15173,-0.37394,-9.76041
11.71628,-0.14006,-0.35733,-9.7637
11.72632,-0.15487,-0.36856,-9.76939
11.73636,-0.15083,-0.37724,-9.7459
11.74639,-0.15128,-0.36721,-9.75128
11.75643,-0.14784,-0.36542,-9.77493
11.76647,-0.16161,-0.35569,-9.77508
11.77651,-0.14829,-0.36227,-9.75458
11.78654,-0.15473,-0.34087,-9.7658
11.79658,-0.16056,-0.3494,-9.75113
11.80662,-0.1646,-0.3503,-9.75757
11.81666,-0.15009,-0.3521,-9.75592
11.82669,-0.15428,-0.37544,-9.76191
11.83673,-0.14844,-0.37035,-9.76071
11.84677,-0.14096,-0.35434,-9.75458
11.85681,-0.13827,-0.37005,-9.77134
11.86684,-0.15039,-0.3702,-9.75338
11.87688,-0.16385,-0.36467,-9.75772
11.88692,-0.15458,-0.36841,-9.78271
11.89696,-0.15592,-0.34985,-9.77612
11.90699,-0.17134,-0.36616,-9.7637
11.91703,-0.16595,-0.36123,-9.75188
11.92707,-0.15413,-0.35883,-9.76789
11.93711,-0.15338,-0.36197,-9.764
11.94715,-0.14545,-0.34671,-9.75981
11.95718,-0.14979,-0.35449,-9.76281
11.96722,-0.14784,-0.35374,-9.75323
11.97726,-0.11956,-0.35689,-9.76849
11.9873,-0.13602,-0.36033,-9.75862
11.99733,-0.13273,-0.36631,-9.7655
12.00737,-0.15502,-0.36242,-9.76864
12.01741,-0.16729,-0.35524,-9.7447
12.02744,-0.16011,-0.36078,-9.75413
12.03748,-0.15353,-0.36467,-9.77478
12.04752,-0.17762,-0.34087,-9.77208
12.05756,-0.16744,-0.35853,-9.76116
12.0676,-0.14814,-0.36751,-9.75577
12.07763,-0.15069,-0.36826,-9.75592
12.08767,-0.15428,-0.36018,-9.7664
12.09771,-0.13318,-0.3711,-9.76625
12.10775,-0.13677,-0.35344,-9.74739
12.11778,-0.13916,-0.36137,-9.76984
12.12782,-0.14171,-0.36212,-9.77642
12.13786,-0.14739,-0.36093,-9.76146
12.1479,-0.13752,-0.35883,-9.75712
12.15793,-0.15308,-0.35464,-9.76161
12.16797,-0.15458,-0.35015,-9.75757
12.17801,-0.1661,-0.3696,-9.75921
12.18805,-0.16969,-0.36347,-9.76116
12.19808,-0.167,-0.35165,-9.76715
12.20812,-0.15892,-0.35659,-9.75892
12.21816,-0.14979,-0.35674,-9.7673
12.2282,-0.1441,-0.37275,-9.75068
12.23823,-0.14829,-0.3702,-9.77777
12.24827,-0.14096,-0.36437,-9.73767
12.25831,-0.15143,-0.37709,-9.76445
12.26835,-0.15278,-0.37379,-9.78361
12.27838,-0.14949,-0.36063,-9.76819
12.28842,-0.14694,-0.35419,-9.76281
12.29846,-0.16385,-0.36392,-9.78121
12.3085,-0.1634,-0.35539,-9.77927
12.31853,-0.14874,-0.35285,-9.75667
12.32857,-0.16071,-0.36003,-9.76206
12.33861,-0.15562,-0.36407,-9.76355
12.34865,-0.15278,-0.34656,-9.75323
12.35868,-0.15278,-0.34731,-9.7661
12.36872,-0.15577,-0.37365,-9.78046
12.37876,-0.15368,-0.36736,-9.78001
12.3888,-0.15069,-0.36347,-9.76221
12.39883,-0.14904,-0.36512,-9.75532
12.40887,-0.1465,-0.37305,-9.7664
12.41891,-0.15428,-0.37379,-9.75652
12.42895,-0.15113,-0.3527,-9.75981
12.43898,-0.16056,-0.35763,-9.77567
12.44902,-0.15622,-0.3503,-9.77358
12.45906,-0.15966,-0.35973,-9.75488
12.4691,-0.15832,-0.36691,-9.76969
12.47913,-0.15263,-0.36527,-9.75832
12.48917,-0.15547,-0.35689,-9.76535
12.49921,-0.15128,-0.35569,-9.76176
12.50925,-0.1426,-0.36931,-9.7465
12.51929,-0.13797,-0.36931,-9.75278
12.52932,-0.15428,-0.36946,-9.78091
12.53936,-0.13961,-0.36706,-9.76744
12.5494,-0.15233,-0.35374,-9.75996
12.55944,-0.16161,-0.35674,-9.7637
12.56947,-0.15443,-0.36093,-9.77538
12.57951,-0.14335,-0.35868,-9.7658
12.58955,-0.14919,-0.36706,-9.75083
12.59959,-0.16685,-0.37035,-9.7655
12.60962,-0.14799,-0.36063,-9.76011
12.61966,-0.13422,-0.35509,-9.74515
12.6297,-0.15368,-0.36242,-9.7661
12.63974,-0.15487,-0.36586,-9.75981
12.64977,-0.14739,-0.36886,-9.7634
12.65981,-0.15697,-0.35778,-9.76161
12.66985,-0.15532,-0.35748,-9.77298
12.67989,-0.14799,-0.35823,-9.77134
12.68992,-0.15487,-0.35883,-9.74754
12.69996,-0.15772,-0.35614,-9.75697
12.71,-0.16505,-0.35733,-9.76789
12.72004,-0.15817,-0.34985,-9.75173
12.73007,-0.16774,-0.36332,-9.76221
12.74011,-0.16729,-0.35195,-9.77328
12.75015,-0.1444,-0.35883,-9.76236
12.76019,-0.15697,-0.36003,-9.75383
12.77022,-0.15996,-0.35524,-9.74395
12.78026,-0.15742,-0.35748,-9.76056
12.7903,-0.14784,-0.35404,-9.75458
12.80034,-0.15218,-0.3735,-9.75562
12.81037,-0.164,-0.36078,-9.7646
12.82041,-0.13617,-0.36272,-9.7444
12.83045,-0.14679,-0.36901,-9.76281
12.84049,-0.1429,-0.36512,-9.77702
12.85052,-0.15652,-0.37065,-9.76071
12.86056,-0.15652,-0.35404,-9.75772
12.8706,-0.15667,-0.36063,-9.77986
12.88064,-0.15487,-0.3503,-9.77523
12.89067,-0.15847,-0.35898,-9.75338
12.90071,-0.1643,-0.36018,-9.76026
12.91075,-0.15188,-0.36422,-9.75084
12.92079,-0.16161,-0.35763,-9.76969
12.93082,-0.15951,-0.36422,-9.75921
12.94086,-0.1456,-0.36227,-9.77119
12.9509,-0.1459,-0.36437,-9.77268
12.96094,-0.1459,-0.36452,-9.7456
12.97098,-0.15173,-0.37215,-9.75727
12.98101,-0.14844,-0.35808,-9.77149
12.99105,-0.14724,-0.36811,-9.78211
13.00109,-0.15592,-0.36182,-9.76266
13.01113,-0.15906,-0.35584,-9.764
13.02116,-0.16744,-0.35554,-9.75562
13.0312,-0.16176,-0.35464,-9.76385
13.04124,-0.1658,-0.35285,-9.76266
13.05128,-0.15592,-0.36152,-9.76176
13.06131,-0.16939,-0.35778,-9.76415
13.07135,-0.16011,-0.36212,-9.75772
13.08139,-0.15353,-0.35434,-9.77298
13.09143,-0.15787,-0.3524,-9.77478
13.10146,-0.15069,-0.37634,-9.7664
13.1115,-0.16071,-0.36766,-9.76565
13.12154,-0.14829,-0.36392,-9.76176
13.13158,-0.15158,-0.37574,-9.74904
13.14161,-0.15158,-0.34521,-9.78405
13.15165,-0.15458,-0.35838,-9.7661
13.16169,-0.14949,-0.35404,-9.75592
13.17173,-0.16774,-0.36362,-9.74964
13.18176,-0.16325,-0.36467,-9.76924
13.1918,-0.15742,-0.35374,-9.74739
13.20184,-0.15113,-0.35464,-9.75697
13.21188,-0.16131,-0.35943,-9.77328
13.22191,-0.14395,-0.36048,-9.77059
13.23195,-0.14694,-0.36078,-9.76281
13.24199,-0.14874,-0.35718,-9.7655
13.25203,-0.15532,-0.37005,-9.7658
13.26206,-0.14904,-0.36497,-9.75458
13.2721,-0.15248,-0.35165,-9.76011
13.28214,-0.17627,-0.36706,-9.77552
13.29218,-0.16266,-0.35838,-9.76086
13.30221,-0.15398,-0.37365,-9.76849
13.31225,-0.15727,-0.36541,-9.77283
13.32229,-0.1459,-0.3512,-9.78061
13.33295,-0.1459,-0.3512,-9.78061
13.34299,-0.14769,-0.36048,-9.77508
13.35303,-0.16221,-0.35015,-9.74979
13.36307,-0.15906,-0.36556,-9.74605
13.3731,-0.15443,-0.36781,-9.77493
13.38314,-0.15428,-0.36781,-9.77553
13.39318,-0.15532,-0.36212,-9.75667
13.40322,-0.15098,-0.3711,-9.7655
13.41326,-0.15802,-0.35778,-9.77104
13.42329,-0.14365,-0.35988,-9.7664
13.43333,-0.15173,-0.36452,-9.76625
13.44337,-0.15787,-0.36616,-9.75652
13.45341,-0.14784,-0.36826,-9.75996
13.46344,-0.14919,-0.36272,-9.75892
13.47348,-0.14859,-0.35434,-9.77059
13.48352,-0.15113,-0.36003,-9.75652
13.49356,-0.14979,-0.36182,-9.75936
13.50359,-0.15772,-0.36542,-9.77059
13.51363,-0.15188,-0.35434,-9.76266
13.52367,-0.15413,-0.3524,-9.75517
13.53371,-0.15847,-0.36272,-9.75682
13.54374,-0.17208,-0.35868,-9.77313
13.55378,-0.14799,-0.36018,-9.75188
13.56382,-0.15772,-0.36886,-9.75488
13.57386,-0.16475,-0.36242,-9.78061
13.58389,-0.14066,-0.36556,-9.76834
13.59393,-0.14664,-0.36811,-9.75607
13.60397,-0.15233,-0.3711,-9.76236
13.61401,-0.15218,-0.37454,-9.77538
13.62404,-0.1661,-0.3497,-9.77283
13.63408,-0.14051,-0.36616,-9.767
13.64412,-0.15607,-0.36467,-9.77253
13.65416,-0.15951,-0.36227,-9.75428
13.66419,-0.14575,-0.37709,-9.74305
13.67423,-0.15413,-0.35913,-9.77014
13.68427,-0.16116,-0.36332,-9.78226
13.69431,-0.16101,-0.35898,-9.75188
13.70435,-0.1441,-0.35943,-9.75458
13.71438,-0.14829,-0.3714,-9.75188
13.72442,-0.15338,-0.36137,-9.75113
13.73446,-0.15772,-0.3491,-9.76071
13.7445,-0.15607,-0.35808,-9.78166
13.75453,-0.16475,-0.35748,-9.76221
13.76457,-0.16206,-0.36586,-9.75443
13.77461,-0.16325,-0.36766,-9.76116
13.78465,-0.164,-0.35569,-9.76176
13.79468,-0.15772,-0.35599,-9.75817
13.80472,-0.16041,-0.36048,-9.76221
13.81476,-0.1459,-0.3726,-9.78211
13.8248,-0.13557,-0.35988,-9.76101
13.83483,-0.1426,-0.36167,-9.75892
13.84487,-0.14769,-0.36691,-9.76909
13.85491,-0.14635,-0.37095,-9.75712
13.86495,-0.15428,-0.36467,-9.75727
13.87498,-0.1465,-0.34566,-9.76146
13.88502,-0.14769,-0.35509,-9.75951
13.89506,-0.16026,-0.36482,-9.7462
13.9051,-0.1652,-0.35389,-9.75263
13.91513,-0.14859,-0.35599,-9.7845
13.92517,-0.15413,-0.35359,-9.75488
13.93521,-0.14365,-0.36123,-9.75757
13.94525,-0.13961,-0.36527,-9.75473
13.95528,-0.15338,-0.36033,-9.75712
13.96532,-0.15188,-0.36377,-9.75817
13.97536,-0.1438,-0.36766,-9.77717
13.9854,-0.15113,-0.35853,-9.77597
13.99543,-0.15697,-0.38292,-9.74605
14.0061,-0.15951,-0.3711,-9.74485
14.01614,-0.16161,-0.36018,-9.75817
14.02617,-0.15772,-0.35629,-9.75892
14.03621,-0.1459,-0.35404,-9.77463
14.04625,-0.14485,-0.36736,-9.77089
14.05629,-0.1459,-0.37514,-9.76056
14.06632,-0.14829,-0.36362,-9.75248
14.07636,-0.15218,-0.35225,-9.75921
14.0864,-0.14874,-0.35494,-9.77418
14.09644,-0.15682,-0.36826,-9.75503
14.10647,-0.16161,-0.36736,-9.74515
14.11651,-0.14859,-0.36048,-9.76595
14.12655,-0.15487,-0.35479,-9.76131
14.13659,-0.15233,-0.35569,-9.75024
14.14663,-0.15308,-0.37574,-9.76296
14.15666,-0.15353,-0.35359,-9.76041
14.1667,-0.15607,-0.33399,-9.75652
14.17674,-0.15323,-0.35374,-9.7857
14.18678,-0.14664,-0.35644,-9.76101
14.19681,-0.16325,-0.35225,-9.76131
14.20685,-0.15188,-0.36751,-9.75428
14.21689,-0.16056,-0.36392,-9.78809
14.22693,-0.15892,-0.36556,-9.76311
14.23696,-0.15862,-0.3699,-9.75473
14.247,-0.15039,-0.3494,-9.76565
14.25704,-0.15158,-0.36003,-9.75802
14.26708,-0.15877,-0.36856,-9.75921
14.27711,-0.15443,-0.35718,-9.77747
14.28715,-0.14575,-0.36003,-9.77388
14.29719,-0.15458,-0.3527,-9.75951
14.30723,-0.14949,-0.37065,-9.75488
14.31726,-0.15981,-0.35105,-9.74709
14.3273,-0.15802,-0.35928,-9.75293
14.33734,-0.15667,-0.36227,-9.76101
14.34738,-0.16475,-0.35748,-9.76415
14.35741,-0.16789,-0.36916,-9.76355
14.36745,-0.15996,-0.36467,-9.75113
14.37749,-0.15951,-0.34806,-9.74201
14.38753,-0.15517,-0.35928,-9.76146
14.39756,-0.15607,-0.36063,-9.76625
14.4076,-0.1453,-0.37185,-9.74664
14.41764,-0.15532,-0.37724,-9.77104
14.42768,-0.15487,-0.35689,-9.76296
14.43771,-0.15473,-0.35404,-9.75233
14.44775,-0.15323,-0.34881,-9.76266
14.45779,-0.17014,-0.36811,-9.76819
14.46783,-0.16071,-0.35943,-9.7664
14.47786,-0.15981,-0.36392,-9.75398
14.4879,-0.16236,-0.35898,-9.76296
14.49794,-0.15323,-0.35838,-9.75203
14.50798,-0.15443,-0.35165,-9.75278
14.51801,-0.14335,-0.37275,-9.78256
14.52805,-0.14694,-0.36541,-9.76954
14.53809,-0.15024,-0.35823,-9.73422
14.54813,-0.16116,-0.35255,-9.75742
14.55816,-0.15443,-0.35479,-9.76685
14.5682,-0.14126,-0.37514,-9.7649
14.57824,-0.15188,-0.35763,-9.75188
14.58828,-0.15083,-0.36048,-9.75787
14.59832,-0.15697,-0.36347,-9.75847
14.60835,-0.15757,-0.35449,-9.76131
14.61839,-0.16086,-0.36452,-9.7664
14.62843,-0.16071,-0.36646,-9.77523
14.63847,-0.16236,-0.35434,-9.76011
14.6485,-0.15877,-0.35883,-9.76595
14.65854,-0.15772,-0.3723,-9.76475
14.66858,-0.14036,-0.37125,-9.75981
14.67862,-0.15083,-0.35823,-9.76325
14.68865,-0.14335,-0.35015,-9.77672
14.69869,-0.15697,-0.35808,-9.76161
14.70873,-0.1462,-0.36182,-9.74231
14.71877,-0.15592,-0.36601,-9.78166
14.7288,-0.17134,-0.35883,-9.77747
14.73884,-0.14545,-0.35718,-9.75622
14.74888,-0.15727,-0.3735,-9.76251
14.75892,-0.15532,-0.36527,-9.76924
14.76895,-0.1426,-0.35823,-9.75981
14.77899,-0.14515,-0.35255,-9.76041
14.78903,-0.15892,-0.36452,-9.77089
14.79907,-0.15742,-0.35539,-9.77657
14.8091,-0.14275,-0.36287,-9.76385
14.81914,-0.14829,-0.35689,-9.76071
14.82918,-0.15473,-0.34671,-9.76834
14.83922,-0.15757,-0.35359,-9.75742
14.84925,-0.15877,-0.36003,-9.7634
14.85929,-0.1462,-0.35778,-9.77657
14.86933,-0.16101,-0.36212,-9.77463
14.87937,-0.15368,-0.35374,-9.75847
14.8894,-0.15652,-0.353,-9.75817
14.89944,-0.14141,-0.35778,-9.75368
14.90948,-0.15921,-0.36871,-9.76206
14.91952,-0.16849,-0.35733,-9.7655
14.92955,-0.14844,-0.36167,-9.77193
14.93959,-0.16355,-0.36781,-9.76266
14.94963,-0.15532,-0.36631,-9.764
14.95967,-0.14156,-0.36437,-9.76565
14.9697,-0.1444,-0.37544,-9.75562
14.97974,-0.15652,-0.36542,-9.75667
14.98978,-0.1465,-0.37634,-9.76266
14.99982,-0.15487,-0.36347,-9.7438
15.00986,-0.14994,-0.36437,-9.75862
15.01989,-0.16071,-0.36033,-9.76984
15.02993,-0.15143,-0.35988,-9.77627
15.03997,-0.14859,-0.35359,-9.74709
15.05001,-0.16251,-0.35883,-9.74814
15.06004,-0.16999,-0.37724,-9.76595
15.07008,-0.15607,-0.35599,-9.75098
15.08012,-0.14844,-0.34731,-9.74245
15.09016,-0.15203,-0.36467,-9.76415
15.10019,-0.14904,-0.35793,-9.77074
15.11023,-0.14605,-0.35973,-9.74829
15.12027,-0.15263,-0.36078,-9.76819
15.13031,-0.16281,-0.37828,-9.76924
15.14034,-0.15577,-0.36302,-9.76565
15.15038,-0.15248,-0.36452,-9.74096
15.16042,-0.14979,-0.36212,-9.76999
15.17046,-0.15532,-0.36018,-9.76595
15.18049,-0.1459,-0.36392,-9.75727
15.19053,-0.15413,-0.36257,-9.7649
15.20057,-0.17074,-0.35105,-9.75682
15.21061,-0.15562,-0.36467,-9.74425
15.22064,-0.16011,-0.36152,-9.75443
15.23068,-0.15532,-0.36003,-9.77523
15.24072,-0.15787,-0.37095,-9.76086
15.25076,-0.15473,-0.36512,-9.75233
15.26079,-0.15517,-0.36691,-9.75652
15.27083,-0.15308,-0.35404,-9.77568
15.28087,-0.145,-0.35689,-9.74739
15.29091,-0.16221,-0.3699,-9.75832
15.30094,-0.17104,-0.36392,-9.77089
15.31098,-0.15428,-0.3518,-9.75592
15.32102,-0.16236,-0.36556,-9.75697
15.33106,-0.15981,-0.34506,-9.76385
15.34109,-0.16026,-0.36781,-9.75263
15.35113,-0.14081,-0.35135,-9.7432
15.36117,-0.16011,-0.35823,-9.76236
15.37121,-0.15877,-0.37335,-9.78405
15.38124,-0.15098,-0.37365,-9.7652
15.39128,-0.14889,-0.35868,-9.75532
15.40132,-0.15113,-0.36182,-9.75248
15.41136,-0.15428,-0.36033,-9.75098
15.4214,-0.13991,-0.37439,-9.76909
15.43143,-0.14679,-0.36392,-9.76206
15.44147,-0.16056,-0.35374,-9.7459
15.45151,-0.15892,-0.35748,-9.767
15.46155,-0.15338,-0.35958,-9.77074
15.47158,-0.15143,-0.36033,-9.76071
15.48162,-0.15577,-0.35718,-9.76266
15.49166,-0.15921,-0.35344,-9.74964
15.5017,-0.15173,-0.35494,-9.76789
15.51173,-0.14605,-0.36886,-9.77029
15.52177,-0.14305,-0.36601,-9.767
15.53181,-0.14829,-0.3708,-9.75862
15.54185,-0.14021,-0.35509,-9.76849
15.55188,-0.14664,-0.36093,-9.75981
15.56192,-0.14904,-0.36542,-9.74709
15.57196,-0.15921,-0.36362,-9.76176
15.582,-0.15098,-0.36362,-9.76415
15.59203,-0.15188,-0.35883,-9.74545
15.60207,-0.16101,-0.36661,-9.76565
15.61211,-0.16161,-0.36571,-9.77762
15.62215,-0.16236,-0.35958,-9.76191
15.63218,-0.14395,-0.37484,-9.76879
15.64222,-0.15443,-0.35539,-9.75577
15.65226,-0.15847,-0.36871,-9.75787
15.6623,-0.1646,-0.36691,-9.7667
15.67233,-0.1432,-0.36377,-9.77568
15.68237,-0.13198,-0.35329,-9.76071
15.69241,-0.14754,-0.35838,-9.76041
15.70245,-0.15562,-0.37409,-9.75847
15.71248,-0.15802,-0.36856,-9.75473
15.72252,-0.14904,-0.35614,-9.77268
15.73256,-0.15607,-0.36811,-9.76939
15.7426,-0.16026,-0.36197,-9.75772
15.75264,-0.14994,-0.36437,-9.745
15.76267,-0.15637,-0.36407,-9.76056
15.77271,-0.15338,-0.35674,-9.77972
15.78275,-0.15338,-0.36257,-9.77074
15.79279,-0.15143,-0.35928,-9.75996
15.80282,-0.15098,-0.35808,-9.76011
15.81286,-0.14964,-0.36527,-9.75757
15.8229,-0.14964,-0.38367,-9.7634
15.83294,-0.15817,-0.36497,-9.77253
15.84297,-0.1637,-0.36841,-9.78121
15.85301,-0.15517,-0.35928,-9.76161
15.86305,-0.15024,-0.36452,-9.75084
15.87309,-0.15981,-0.35883,-9.7643
15.88312,-0.16475,-0.36152,-9.76086
15.89316,-0.15742,-0.353,-9.74814
15.9032,-0.15637,-0.35599,-9.75906
15.91324,-0.15817,-0.36946,-9.77163
15.92327,-0.15637,-0.35808,-9.76131
15.93331,-0.14216,-0.35674,-9.75951
15.94335,-0.15083,-0.37649,-9.77912
15.95339,-0.1438,-0.37589,-9.75832
15.96343,-0.15308,-0.36706,-9.76056
15.97346,-0.15083,-0.36601,-9.77657
15.9835,-0.16535,-0.36108,-9.75218
15.99354,-0.1649,-0.36691,-9.75473
16.00357,-0.16146,-0.35614,-9.76595
16.01361,-0.15383,-0.34701,-9.77807
16.02365,-0.16221,-0.34447,-9.75697
16.03369,-0.16819,-0.35868,-9.75158
16.04372,-0.14814,-0.35808,-9.75906
16.05376,-0.17029,-0.34521,-9.76041
16.0638,-0.15203,-0.36212,-9.75652
16.07384,-0.14994,-0.36676,-9.7643
16.08388,-0.16071,-0.37275,-9.76011
16.09391,-0.14829,-0.36018,-9.75697
16.10395,-0.15083,-0.35943,-9.7453
16.11399,-0.14575,-0.36646,-9.77029
16.12403,-0.1637,-0.35629,-9.75308
16.13406,-0.15039,-0.35509,-9.74814
16.1441,-0.16744,-0.35404,-9.77014
16.15414,-0.14829,-0.36377,-9.75907
16.16418,-0.15113,-0.35599,-9.75682
16.17421,-0.1646,-0.34836,-9.7652
16.18425,-0.15293,-0.36108,-9.74799
16.19429,-0.14829,-0.36556,-9.76595
16.20433,-0.15308,-0.36871,-9.7661
16.21436,-0.15293,-0.3708,-9.77283
16.2244,-0.1426,-0.36048,-9.76176
16.23444,-0.15787,-0.36586,-9.75966
16.24448,-0.15951,-0.34955,-9.75473
16.25451,-0.15353,-0.35359,-9.75203
16.26455,-0.14605,-0.34656,-9.75113
16.27459,-0.16011,-0.36033,-9.77493
16.28463,-0.16655,-0.35898,-9.76819
16.29466,-0.15877,-0.36392,-9.76161
16.3047,-0.16101,-0.36586,-9.75682
16.31474,-0.1634,-0.36931,-9.7646
16.32478,-0.16535,-0.35554,-9.76535
16.33481,-0.15323,-0.36407,-9.77029
16.34485,-0.14545,-0.34895,-9.75652
16.35489,-0.15607,-0.35973,-9.76759
16.36493,-0.15398,-0.37125,-9.75847
16.37496,-0.15652,-0.35479,-9.77852
16.385,-0.15024,-0.3717,-9.78376
16.39504,-0.15248,-0.35793,-9.75473
16.40508,-0.15278,-0.36257,-9.76176
16.41512,-0.15996,-0.36586,-9.76056
16.42515,-0.1459,-0.35419,-9.75921
16.43519,-0.16685,-0.353,-9.77119
16.44523,-0.15577,-0.36093,-9.7664
16.45527,-0.15039,-0.36556,-9.764
16.4653,-0.14455,-0.35584,-9.75607
16.47534,-0.15502,-0.36212,-9.76236
16.48538,-0.16101,-0.37379,-9.76535
16.49542,-0.15772,-0.3506,-9.75966
16.50545,-0.15847,-0.34417,-9.76131
16.51549,-0.15248,-0.35748,-9.75532
16.52553,-0.14859,-0.37125,-9.74964
16.53557,-0.15682,-0.36137,-9.74754
16.5456,-0.14799,-0.35314,-9.77149
16.55564,-0.15667,-0.35584,-9.7637
16.56568,-0.1456,-0.3512,-9.74081
16.57572,-0.15383,-0.35823,-9.77478
16.58575,-0.15622,-0.3702,-9.78091
16.59579,-0.15697,-0.36646,-9.75817
16.60583,-0.15787,-0.36871,-9.74694
16.61587,-0.16176,-0.372,-9.76266
16.6259,-0.14934,-0.36871,-9.75652
16.63594,-0.14186,-0.35614,-9.7646
16.64598,-0.15892,-0.35449,-9.77358
16.65602,-0.16715,-0.35285,-9.76026
16.66605,-0.14949,-0.35644,-9.75847
16.67609,-0.1646,-0.35913,-9.76565
16.68613,-0.15712,-0.3527,-9.78121
16.69617,-0.164,-0.35434,-9.75263
16.7062,-0.16236,-0.34402,-9.75233
16.71624,-0.15502,-0.36227,-9.79019
16.72628,-0.15128,-0.35329,-9.77134
16.73632,-0.17134,-0.36706,-9.74904
16.74636,-0.15428,-0.36108,-9.77014
16.75639,-0.16116,-0.36242,-9.77538
16.76643,-0.14994,-0.36392,-9.74934
16.77647,-0.14904,-0.36616,-9.7637
16.78651,-0.14979,-0.37095,-9.77897
16.79654,-0.13841,-0.35554,-9.76041
16.80658,-0.1438,-0.3521,-9.75173
16.81662,-0.15069,-0.36901,-9.77642
16.82666,-0.15383,-0.35479,-9.76191
16.83669,-0.14365,-0.35718,-9.74784
16.84673,-0.16864,-0.36616,-9.77223
16.85677,-0.1634,-0.36691,-9.75921
16.86681,-0.15712,-0.35778,-9.75802
16.87684,-0.15936,-0.36018,-9.7652
16.88688,-0.15263,-0.36152,-9.77104
16.89692,-0.14919,-0.35464,-9.7453
16.90696,-0.14515,-0.36916,-9.7444
16.91699,-0.14395,-0.37065,-9.75966
16.92703,-0.14709,-0.36197,-9.76475
16.93707,-0.15383,-0.35988,-9.76146
16.94711,-0.14799,-0.36302,-9.77448
16.95714,-0.15338,-0.36392,-9.7658
16.96718,-0.15113,-0.35689,-9.73198
16.97722,-0.16131,-0.35509,-9.76176
16.98726,-0.16774,-0.36033,-9.78884
16.99729,-0.15577,-0.35808,-9.77014
17.00733,-0.14874,-0.36646,-9.75503
17.01737,-0.15293,-0.37215,-9.76011
17.02741,-0.16266,-0.35808,-9.76819
17.03744,-0.14245,-0.34177,-9.75667
17.04748,-0.14874,-0.35629,-9.76445
17.05752,-0.15682,-0.35928,-9.76026
17.06756,-0.15158,-0.36317,-9.75907
17.0776,-0.13886,-0.35659,-9.76864
17.08763,-0.1447,-0.36497,-9.76954
17.09767,-0.15413,-0.36422,-9.75951
17.10771,-0.15727,-0.35539,-9.75592
17.11775,-0.16146,-0.35748,-9.75892
17.12778,-0.16086,-0.3696,-9.77732
17.13782,-0.15757,-0.3702,-9.76116
17.14786,-0.14799,-0.35838,-9.77388
17.1579,-0.13827,-0.36871,-9.75173
17.16793,-0.14919,-0.36033,-9.75862
17.17797,-0.15173,-0.36541,-9.7646
17.18801,-0.1444,-0.36182,-9.76131
17.19805,-0.15188,-0.34177,-9.75996
17.20808,-0.15143,-0.36123,-9.75907
17.21812,-0.15473,-0.35823,-9.77253
17.22816,-0.16086,-0.36407,-9.76685
17.2382,-0.15622,-0.36706,-9.75936
17.24823,-0.16355,-0.36257,-9.75293
17.25827,-0.16909,-0.36691,-9.77942
17.26831,-0.15443,-0.35898,-9.7658
17.27835,-0.14201,-0.35718,-9.76161
17.28838,-0.14305,-0.35434,-9.76355
17.29842,-0.15607,-0.37005,-9.75517
17.30846,-0.14216,-0.36616,-9.7459
17.3185,-0.14964,-0.36497,-9.76804
17.32916,-0.1447,-0.36242,-9.77942
17.3392,-0.1447,-0.36242,-9.77942
17.34924,-0.15712,-0.35524,-9.75143
17.35927,-0.16281,-0.35449,-9.76505
17.36931,-0.15847,-0.36556,-9.77388
17.37935,-0.16041,-0.34731,-9.74814
17.38939,-0.15832,-0.34536,-9.75113
17.39942,-0.15742,-0.35539,-9.75413
17.40946,-0.15398,-0.36078,-9.77044
17.4195,-0.145,-0.36063,-9.75488
17.42954,-0.15906,-0.3696,-9.75936
17.43957,-0.16909,-0.36691,-9.76281
17.44961,-0.15039,-0.35958,-9.7655
17.45965,-0.14679,-0.36556,-9.75936
17.46969,-0.15682,-0.37005,-9.76236
17.47972,-0.14874,-0.36616,-9.77029
17.48976,-0.15487,-0.36497,-9.76759
17.4998,-0.1664,-0.35778,-9.77208
17.50984,-0.16071,-0.36182,-9.77313
17.51988,-0.15877,-0.35883,-9.75443
17.52991,-0.14739,-0.35344,-9.75547
17.53995,-0.15667,-0.36616,-9.76969
17.54999,-0.15667,-0.36033,-9.75503
17.56003,-0.14769,-0.35374,-9.76715
17.57006,-0.15233,-0.34506,-9.7649
17.5801,-0.15577,-0.36556,-9.75113
17.59014,-0.15757,-0.35943,-9.76131
17.60018,-0.15413,-0.34881,-9.78016
17.61021,-0.15727,-0.35614,-9.77687
17.62025,-0.1447,-0.35958,-9.75577
17.63029,-0.16086,-0.36512,-9.76071
17.64033,-0.15996,-0.35913,-9.76071
17.65036,-0.15128,-0.37035,-9.76565
17.6604,-0.14485,-0.34776,-9.78435
17.67044,-0.14754,-0.35808,-9.77089
17.68048,-0.17089,-0.36272,-9.74111
17.69051,-0.15906,-0.34821,-9.74934
17.70055,-0.15817,-0.3723,-9.76939
17.71059,-0.15009,-0.35285,-9.76475
17.72063,-0.14874,-0.35165,-9.7465
17.73066,-0.15667,-0.36931,-9.75233
17.7407,-0.16789,-0.36272,-9.76236
17.75074,-0.15637,-0.35689,-9.77957
17.76078,-0.14335,-0.35165,-9.7845
17.77081,-0.15727,-0.36826,-9.77986
17.78085,-0.15936,-0.36586,-9.74874
17.79089,-0.1465,-0.35988,-9.76774
17.80093,-0.15607,-0.35838,-9.77927
17.81096,-0.15024,-0.36242,-9.78061
17.821,-0.15502,-0.35629,-9.76086
17.83104,-0.15473,-0.38008,-9.74754
17.84108,-0.15802,-0.36796,-9.77657
17.85112,-0.15577,-0.36886,-9.77283
17.86115,-0.15622,-0.36796,-9.75936
17.87119,-0.16011,-0.37065,-9.75802
17.88123,-0.16251,-0.35599,-9.76759
17.89127,-0.1462,-0.36197,-9.767
17.9013,-0.15218,-0.36137,-9.76774
17.91134,-0.15577,-0.36093,-9.77029
17.92138,-0.15039,-0.34716,-9.75637
17.93142,-0.15966,-0.36108,-9.74859
17.94145,-0.15024,-0.35988,-9.78076
17.95149,-0.14006,-0.36003,-9.77193
17.96153,-0.15158,-0.35913,-9.75877
17.97157,-0.15398,-0.36033,-9.76176
17.9816,-0.14904,-0.38472,-9.75862
17.99164,-0.14395,-0.36078,-9.74919
18.00168,-0.16221,-0.34791,-9.78136
18.01234,-0.16221,-0.34791,-9.78136
18.02238,-0.1634,-0.36167,-9.76041
18.03242,-0.15308,-0.35733,-9.76879
18.04246,-0.15368,-0.36392,-9.76789
18.05249,-0.15323,-0.36542,-9.77014
18.06253,-0.1456,-0.35464,-9.75488
18.07257,-0.14305,-0.34581,-9.75443
18.08261,-0.15443,-0.36182,-9.76475
18.09264,-0.1459,-0.35404,-9.76325
18.10268,-0.16146,-0.3494,-9.77059
18.11272,-0.15802,-0.35644,-9.76774
18.12276,-0.15383,-0.36257,-9.76146
18.13279,-0.15517,-0.35359,-9.75323
18.14283,-0.15323,-0.36841,-9.76146
18.15287,-0.15158,-0.33878,-9.76819
18.16291,-0.15562,-0.35359,-9.76789
18.17294,-0.15248,-0.36152,-9.74111
18.18298,-0.15128,-0.36452,-9.75652
18.19302,-0.14635,-0.3696,-9.76804
18.20306,-0.14515,-0.36048,-9.77074
18.21309,-0.16026,-0.36018,-9.78899
18.22313,-0.14126,-0.3735,-9.7664
18.23317,-0.15009,-0.36497,-9.75054
18.24321,-0.15443,-0.37065,-9.76011
18.25325,-0.1459,-0.36676,-9.7664
18.26328,-0.15712,-0.37125,-9.76984
18.27332,-0.15413,-0.36347,-9.75877
18.28336,-0.16176,-0.35838,-9.75188
18.2934,-0.1643,-0.37005,-9.75562
18.30343,-0.15802,-0.36108,-9.75353
18.31347,-0.16176,-0.35419,-9.75936
18.32351,-0.15682,-0.36661,-9.76879
18.33355,-0.16206,-0.36931,-9.76789
18.34358,-0.15592,-0.3702,-9.77074
18.35362,-0.15173,-0.36841,-9.76311
18.36366,-0.15966,-0.372,-9.7664
18.3737,-0.14859,-0.35329,-9.75757
18.38373,-0.14769,-0.35704,-9.7643
18.39377,-0.14844,-0.3711,-9.7637
18.40381,-0.14844,-0.34551,-9.75802
18.41385,-0.15458,-0.36257,-9.75892
18.42388,-0.15622,-0.36497,-9.76086
18.43392,-0.16759,-0.34731,-9.75413
18.44396,-0.16161,-0.35404,-9.75428
18.454,-0.15308,-0.3696,-9.7649
18.46403,-0.14679,-0.35778,-9.76864
18.47407,-0.15263,-0.35748,-9.767
18.48411,-0.15353,-0.37125,-9.77253
18.49415,-0.15383,-0.35868,-9.77134
18.50418,-0.14709,-0.36497,-9.76176
18.51422,-0.14036,-0.36167,-9.76131
18.52426,-0.1456,-0.36167,-9.7673
18.5343,-0.15353,-0.35898,-9.76505
18.54433,-0.15652,-0.3515,-9.75637
18.55437,-0.16041,-0.34506,-9.75607
18.56441,-0.16834,-0.36796,-9.75503
18.57445,-0.1637,-0.36137,-9.74679
18.58448,-0.15338,-0.34656,-9.76879
18.59452,-0.15293,-0.36556,-9.77657
18.60456,-0.16311,-0.36437,-9.75547
18.6146,-0.14994,-0.36407,-9.7646
18.62464,-0.14964,-0.37095,-9.78405
18.63467,-0.16131,-0.37813,-9.78166
18.64471,-0.1438,-0.37155,-9.76026
18.65475,-0.16939,-0.36586,-9.77867
18.66479,-0.15353,-0.36646,-9.7646
18.67482,-0.15098,-0.36542,-9.75921
18.68486,-0.15832,-0.34836,-9.75248
18.6949,-0.14485,-0.34881,-9.75802
18.70494,-0.15293,-0.34267,-9.74515
18.71497,-0.1453,-0.34626,-9.76101
18.72501,-0.15278,-0.35644,-9.76565
18.73505,-0.16894,-0.35659,-9.74724
18.74509,-0.1634,-0.35359,-9.74665
18.75512,-0.16011,-0.35778,-9.7637
18.76516,-0.15547,-0.35853,-9.76505
18.7752,-0.1631,-0.36676,-9.75547
18.78524,-0.16131,-0.36796,-9.77104
18.79527,-0.15727,-0.37589,-9.74934
18.80531,-0.14904,-0.3735,-9.77104
18.81535,-0.15308,-0.37005,-9.78121
18.82539,-0.15772,-0.37335,-9.76819
18.83542,-0.14709,-0.37529,-9.74455
18.84546,-0.13048,-0.36886,-9.76116
18.8555,-0.14664,-0.36317,-9.76655
18.86554,-0.15233,-0.36078,-9.77358
18.87557,-0.14275,-0.33923,-9.76221
18.88561,-0.15188,-0.35599,-9.75877
18.89565,-0.15607,-0.34985,-9.76595
18.90569,-0.14216,-0.34417,-9.74739
18.91572,-0.15682,-0.35479,-9.76146
18.92576,-0.1652,-0.35314,-9.77972
18.9358,-0.15428,-0.36242,-9.75188
18.94584,-0.14709,-0.3509,-9.75084
18.95588,-0.14994,-0.36512,-9.78331
18.96591,-0.14784,-0.37409,-9.76894
18.97595,-0.1447,-0.36048,-9.75263
18.98599,-0.16879,-0.36137,-9.77149
18.99603,-0.17074,-0.36556,-9.77986
19.00606,-0.15607,-0.37559,-9.75398
19.0161,-0.15293,-0.37499,-9.75233
19.02614,-0.1664,-0.38053,-9.78765
19.03618,-0.15742,-0.3714,-9.77702
19.04621,-0.15906,-0.35704,-9.75338
19.05625,-0.14769,-0.36586,-9.7652
19.06629,-0.15218,-0.35868,-9.76595
19.07633,-0.15802,-0.36302,-9.7646
19.08636,-0.1447,-0.35419,-9.76954
19.0964,-0.14575,-0.35389,-9.77373
19.10644,-0.13093,-0.35494,-9.76774
19.11648,-0.1453,-0.35359,-9.75877
19.12651,-0.16116,-0.36212,-9.75817
19.13655,-0.15128,-0.35718,-9.77044
19.14659,-0.14036,-0.35554,-9.76505
19.15663,-0.16715,-0.35748,-9.77313
19.16666,-0.15562,-0.37095,-9.76565
19.1767,-0.15188,-0.36601,-9.75218
19.18674,-0.15517,-0.36377,-9.75233
19.19678,-0.16251,-0.35419,-9.76864
19.20681,-0.16101,-0.37424,-9.76909
19.21685,-0.15892,-0.36422,-9.7664
19.22689,-0.15413,-0.35988,-9.77193
19.23693,-0.14844,-0.36901,-9.7637
19.24696,-0.14784,-0.353,-9.73617
19.257,-0.14515,-0.36362,-9.76909
19.26704,-0.1652,-0.35404,-9.77463
19.27708,-0.15188,-0.3497,-9.75787
19.28712,-0.14904,-0.35449,-9.74784
19.29715,-0.15862,-0.35509,-9.7456
19.30719,-0.16834,-0.36272,-9.76789
19.31723,-0.15278,-0.36467,-9.76161
19.32727,-0.15173,-0.33983,-9.76819
19.3373,-0.15113,-0.35464,-9.76565
19.34734,-0.15188,-0.35659,-9.74844
19.35738,-0.14754,-0.36197,-9.76236
19.36742,-0.14934,-0.36362,-9.76954
19.37745,-0.15487,-0.36946,-9.76954
19.38749,-0.16281,-0.3524,-9.75443
19.39753,-0.16415,-0.35659,-9.79154
19.40757,-0.15233,-0.35943,-9.77104
19.4176,-0.15532,-0.36182,-9.77119
19.42764,-0.1839,-0.36167,-9.74769
19.43768,-0.17702,-0.37948,-9.77208
19.44772,-0.1631,-0.37095,-9.77807
19.45775,-0.14739,-0.35704,-9.77149
19.46779,-0.15293,-0.37424,-9.77642
19.47783,-0.15143,-0.36541,-9.76056
19.48787,-0.1453,-0.35704,-9.74605
19.4979,-0.14904,-0.36347,-9.77388
19.50794,-0.12585,-0.35225,-9.7643
19.51798,-0.12869,-0.36242,-9.75847
19.52802,-0.15098,-0.35793,-9.76116
19.53805,-0.15083,-0.34866,-9.74889
19.54809,-0.15098,-0.3509,-9.74829
19.55813,-0.15712,-0.35554,-9.76969
19.56817,-0.15817,-0.35045,-9.77687
19.57821,-0.17807,-0.36123,-9.76266
19.58824,-0.17837,-0.34641,-9.74485
19.59828,-0.16774,-0.34806,-9.76176
19.60832,-0.15951,-0.35105,-9.75981
19.61836,-0.15203,-0.3711,-9.74904
19.62839,-0.14994,-0.38337,-9.7432
19.63843,-0.16266,-0.37694,-9.76789
19.64847,-0.14994,-0.37275,-9.7649
19.65851,-0.14709,-0.37559,-9.76744
19.66854,-0.14395,-0.37993,-9.76355
19.67858,-0.14335,-0.37993,-9.75622
19.68862,-0.14021,-0.34746,-9.75562
19.69866,-0.16655,-0.34881,-9.76535
19.70869,-0.15667,-0.35105,-9.77208
19.71873,-0.15308,-0.36108,-9.76131
19.72877,-0.1652,-0.35614,-9.74829
19.73881,-0.16894,-0.34521,-9.75502
19.74884,-0.16071,-0.35823,-9.75832
19.75888,-0.15368,-0.34626,-9.77627
19.76892,-0.15039,-0.35374,-9.7634
19.77896,-0.13871,-0.35973,-9.75338
19.78899,-0.15787,-0.36856,-9.75862
19.79903,-0.1462,-0.36646,-9.76311
19.80907,-0.15263,-0.36407,-9.76924
19.81911,-0.15128,-0.3702,-9.77104
19.82914,-0.15517,-0.3717,-9.75921
19.83918,-0.14066,-0.37769,-9.75203
19.84922,-0.15847,-0.35524,-9.76131
19.85926,-0.17523,-0.36302,-9.77148
19.8693,-0.16999,-0.3527,-9.75622
19.87933,-0.16011,-0.35374,-9.76715
19.88937,-0.17014,-0.36272,-9.75862
19.89941,-0.15802,-0.35659,-9.76804
19.90945,-0.15936,-0.34821,-9.76221
19.91948,-0.15233,-0.33683,-9.75278
19.92952,-0.15502,-0.36287,-9.76026
19.93956,-0.14156,-0.38068,-9.75158
19.9496,-0.1426,-0.37005,-9.75697
19.95963,-0.15098,-0.35958,-9.76206
19.96967,-0.15218,-0.35718,-9.75921
19.97971,-0.15458,-0.35898,-9.74964
19.98975,-0.16146,-0.36048,-9.7661
19.99978,-0.1634,-0.36078,-9.78585
20.00982,-0.1631,-0.36856,-9.77478
20.01986,-0.17029,-0.36841,-9.76221
20.0299,-0.18091,-0.36901,-9.78166
20.03993,-0.15757,-0.37664,-9.76969
20.04997,-0.15323,-0.3705,-9.7643
20.06001,-0.14739,-0.36452,-9.77358
20.07005,-0.1658,-0.3702,-9.76729
20.08008,-0.15547,-0.36841,-9.74979
20.09012,-0.14156,-0.36078,-9.75233
20.10016,-0.145,-0.35928,-9.7637
20.1102,-0.14844,-0.35733,-9.75024
20.12023,-0.15428,-0.35689,-9.74171
20.13027,-0.14051,-0.35898,-9.7634
20.14031,-0.16385,-0.3494,-9.78346
20.15035,-0.16834,-0.34267,-9.77283
20.16039,-0.15428,-0.33938,-9.75368
20.17042,-0.17942,-0.35793,-9.76535
20.18046,-0.1652,-0.36871,-9.75473
20.1905,-0.15158,-0.36527,-9.76475
20.20054,-0.15233,-0.38861,-9.77148
20.21057,-0.15832,-0.38502,-9.75892
20.22061,-0.14111,-0.38442,-9.77373
20.23065,-0.1432,-0.38188,-9.76355
20.24069,-0.13258,-0.36871,-9.76161
20.25072,-0.13841,-0.36646,-9.76685
20.26076,-0.15532,-0.35718,-9.75233
20.2708,-0.14994,-0.35629,-9.76385
20.28084,-0.16774,-0.34297,-9.76625
20.29087,-0.17986,-0.34327,-9.77119
20.30091,-0.17328,-0.33354,-9.76101
20.31095,-0.16729,-0.33803,-9.74575
20.32099,-0.15368,-0.34477,-9.75772
20.33102,-0.14964,-0.34641,-9.75278
20.34106,-0.1444,-0.34551,-9.75577
20.3511,-0.1233,-0.36556,-9.75907
20.36114,-0.13078,-0.37769,-9.7673
20.37117,-0.13916,-0.38681,-9.77777
20.38121,-0.13408,-0.37275,-9.75562
20.39125,-0.13108,-0.3705,-9.76191
20.40129,-0.15877,-0.37589,-9.76789
20.41132,-0.16685,-0.37215,-9.76939
20.42136,-0.16221,-0.36916,-9.77627
20.4314,-0.16894,-0.38247,-9.75757
20.44144,-0.17642,-0.36856,-9.75652
20.45147,-0.16909,-0.36676,-9.76685
20.46151,-0.1664,-0.36257,-9.7631
20.47155,-0.15951,-0.34806,-9.76161
20.48159,-0.15473,-0.34282,-9.75547
20.49162,-0.13482,-0.35584,-9.73916
20.50166,-0.12136,-0.35135,-9.76266
20.5117,-0.13841,-0.35165,-9.76086
20.52174,-0.13901,-0.36078,-9.76266
20.53177,-0.14021,-0.36048,-9.76595
20.54181,-0.13916,-0.3503,-9.75652
20.55185,-0.14919,-0.35554,-9.75532
20.56189,-0.15966,-0.36482,-9.75802
20.57193,-0.15203,-0.36362,-9.76176
20.58196,-0.17178,-0.34731,-9.75787
20.592,-0.17567,-0.35883,-9.77642
20.60204,-0.16176,-0.38217,-9.76939
20.61208,-0.16385,-0.37409,-9.76415
20.62211,-0.15233,-0.37484,-9.75488
20.63215,-0.15772,-0.36706,-9.77119
20.64219,-0.15173,-0.37514,-9.76984
20.65223,-0.13827,-0.36646,-9.77792
20.66226,-0.1429,-0.36901,-9.75637
20.6723,-0.14021,-0.36482,-9.76281
20.68234,-0.14679,-0.36347,-9.75248
20.69238,-0.14934,-0.36197,-9.75039
20.70241,-0.15697,-0.35075,-9.74679
20.71245,-0.15517,-0.35614,-9.77163
20.72249,-0.15143,-0.35329,-9.77912
20.73253,-0.15024,-0.34447,-9.75742
20.74256,-0.16834,-0.35823,-9.7646
20.7526,-0.16759,-0.37649,-9.7634
20.76264,-0.1432,-0.3518,-9.75353
20.77268,-0.15248,-0.36586,-9.76625
20.78271,-0.14784,-0.36856,-9.76759
20.79275,-0.1459,-0.36212,-9.76206
20.80279,-0.13976,-0.36766,-9.75607
20.81283,-0.15487,-0.36392,-9.77208
20.82286,-0.15203,-0.36287,-9.77104
20.8329,-0.16296,-0.37514,-9.75936
20.84294,-0.15293,-0.35644,-9.75458
20.85298,-0.1646,-0.35659,-9.7637
20.86302,-0.15652,-0.34851,-9.78136
20.87305,-0.14036,-0.34955,-9.77373
20.88309,-0.15517,-0.34776,-9.75712
20.89313,-0.15069,-0.3503,-9.7441
20.90317,-0.15413,-0.35569,-9.75069
20.9132,-0.15607,-0.35973,-9.77044
20.92324,-0.13752,-0.36332,-9.76879
20.93328,-0.13557,-0.35748,-9.76909
20.94332,-0.15054,-0.36063,-9.76041
20.95335,-0.14605,-0.36287,-9.76685
20.96339,-0.1456,-0.37529,-9.77149
20.97343,-0.14859,-0.36631,-9.76834
20.98347,-0.1646,-0.36317,-9.75652
20.9935,-0.14425,-0.35868,-9.75772
21.00354,-0.15921,-0.36527,-9.77358
21.01358,-0.16026,-0.36167,-9.77418
21.02362,-0.15667,-0.35913,-9.75832
21.03365,-0.15742,-0.36242,-9.76819
21.04369,-0.14739,-0.36182,-9.75802
21.05373,-0.15278,-0.37394,-9.7643
21.06377,-0.15502,-0.36706,-9.7872
21.0738,-0.14635,-0.35539,-9.76146
21.08384,-0.14904,-0.35838,-9.75473
21.09388,-0.15323,-0.35733,-9.75383
21.10392,-0.14994,-0.36347,-9.75951
21.11395,-0.13662,-0.3524,-9.77104
21.12399,-0.14949,-0.35225,-9.76954
21.13403,-0.15547,-0.35015,-9.75996
21.14407,-0.16415,-0.35075,-9.74575
21.1541,-0.15458,-0.36706,-9.75503
21.16414,-0.14904,-0.3527,-9.76026
21.17418,-0.1426,-0.36048,-9.77089
21.18422,-0.16296,-0.37409,-9.74964
21.19426,-0.14934,-0.36272,-9.76385
21.20429,-0.14635,-0.37454,-9.76475
21.21433,-0.1444,-0.37365,-9.77253
21.22437,-0.15383,-0.38188,-9.75921
21.23441,-0.15158,-0.36003,-9.75727
21.24444,-0.15218,-0.36123,-9.77433
21.25448,-0.14754,-0.35659,-9.7631
21.26452,-0.14904,-0.35733,-9.76849
21.27456,-0.16026,-0.36616,-9.74904
21.28459,-0.16161,-0.36467,-9.75188
21.29463,-0.15607,-0.36123,-9.76281
21.30467,-0.1459,-0.36482,-9.76116
21.31471,-0.16325,-0.37005,-9.76146
21.32474,-0.15682,-0.35823,-9.76894
21.33478,-0.1429,-0.34641,-9.76071
21.34482,-0.14605,-0.36182,-9.76505
21.35486,-0.14769,-0.36257,-9.76819
21.3649,-0.15338,-0.35704,-9.77657
21.37493,-0.15158,-0.36571,-9.75024
21.38497,-0.16355,-0.35494,-9.75622
21.39501,-0.16266,-0.36422,-9.76161
21.40505,-0.17193,-0.36916,-9.7646
21.41508,-0.14979,-0.35524,-9.75951
21.42512,-0.15308,-0.36137,-9.7631
21.43516,-0.16206,-0.36392,-9.75488
21.4452,-0.15877,-0.35659,-9.75248
21.45523,-0.15697,-0.35868,-9.78346
21.46527,-0.1438,-0.36182,-9.77957
21.47531,-0.15877,-0.35659,-9.76535
21.48535,-0.16535,-0.36631,-9.745
21.49538,-0.13063,-0.36856,-9.76325
21.50542,-0.15413,-0.36871,-9.75098
21.51546,-0.15502,-0.36856,-9.76924
21.5255,-0.14859,-0.35479,-9.76655
21.53553,-0.15577,-0.37185,-9.74874
21.54557,-0.15517,-0.37125,-9.76206
21.55561,-0.1631,-0.34955,-9.75877
21.56565,-0.15473,-0.35449,-9.75458
21.57568,-0.15203,-0.36392,-9.76505
21.58572,-0.15009,-0.3524,-9.76804
21.59576,-0.15712,-0.36362,-9.77597
21.6058,-0.14859,-0.35554,-9.7655
21.61583,-0.15054,-0.37888,-9.75503
21.62587,-0.15203,-0.3699,-9.76924
21.63591,-0.15981,-0.36542,-9.75652
21.64595,-0.1441,-0.3735,-9.74754
21.65598,-0.16939,-0.37005,-9.7655
21.66602,-0.16071,-0.36422,-9.76625
21.67606,-0.1462,-0.35958,-9.77463
21.6861,-0.15622,-0.35748,-9.77223
21.69614,-0.15218,-0.36317,-9.74724
21.70617,-0.15532,-0.34806,-9.75098
21.71621,-0.15832,-0.3711,-9.7842
21.72625,-0.14485,-0.36901,-9.76685
21.73629,-0.15547,-0.3521,-9.76909
21.74632,-0.15981,-0.36392,-9.75143
21.75636,-0.15233,-0.36586,-9.75098
21.7664,-0.15383,-0.35569,-9.76161
21.77644,-0.15083,-0.3702,-9.78286
21.78647,-0.15921,-0.35629,-9.75772
21.79651,-0.15832,-0.37275,-9.77134
21.80655,-0.14545,-0.36197,-9.75368
21.81659,-0.13916,-0.35733,-9.76026
21.82662,-0.13991,-0.37769,-9.78346
21.83666,-0.14395,-0.35704,-9.7631
21.8467,-0.13348,-0.37604,-9.73632
21.85674,-0.14829,-0.37185,-9.77208
21.86677,-0.15293,-0.35419,-9.78091
21.87681,-0.14575,-0.35808,-9.76146
21.88685,-0.1655,-0.36018,-9.74979
21.89689,-0.17852,-0.353,-9.76849
21.90692,-0.17104,-0.36272,-9.7661
21.91696,-0.16759,-0.34836,-9.76161
21.927,-0.17597,-0.35539,-9.76086
21.93704,-0.15712,-0.35943,-9.75323
21.94707,-0.13063,-0.35928,-9.75293
21.95711,-0.13437,-0.37155,-9.75697
21.96715,-0.13108,-0.37559,-9.7667
21.97719,-0.13348,-0.38442,-9.75218
21.98722,-0.14111,-0.36721,-9.74679
21.99726,-0.1456,-0.35464,-9.75637
22.0073,-0.14919,-0.34821,-9.76909
22.01734,-0.16011,-0.35808,-9.76625
22.02738,-0.14679,-0.3521,-9.7465
22.03741,-0.17448,-0.35329,-9.74859
22.04745,-0.16909,-0.35314,-9.75966
22.05749,-0.1652,-0.3524,-9.77957
22.06753,-0.1634,-0.3506,-9.7658
22.07756,-0.1655,-0.36093,-9.74934
22.0876,-0.14859,-0.36931,-9.7658
22.09764,-0.1432,-0.3705,-9.77807
22.10768,-0.1456,-0.36571,-9.78151
22.11771,-0.14126,-0.36212,-9.76789
22.12775,-0.1447,-0.36691,-9.76834
22.13779,-0.14575,-0.36631,-9.77119
22.14783,-0.14799,-0.35748,-9.77104
22.15786,-0.14979,-0.35045,-9.75862
22.1679,-0.16565,-0.34881,-9.74874
22.17794,-0.17283,-0.3494,-9.75443
22.18798,-0.16625,-0.34716,-9.75802
22.19801,-0.17523,-0.35464,-9.75832
22.20805,-0.17163,-0.36497,-9.74679
22.21809,-0.16774,-0.35808,-9.75712
22.22813,-0.14844,-0.35883,-9.76924
22.23816,-0.13422,-0.37005,-9.76864
22.2482,-0.14575,-0.36287,-9.77373
22.25824,-0.13767,-0.37963,-9.77313
22.26828,-0.12944,-0.36721,-9.75173
22.27831,-0.13482,-0.36392,-9.75921
22.28835,-0.16281,-0.35674,-9.76954
22.29839,-0.15547,-0.36033,-9.77717
22.30843,-0.15413,-0.35524,-9.75577
22.31846,-0.15951,-0.35045,-9.75263
22.3285,-0.16041,-0.35853,-9.75128
22.33854,-0.17343,-0.35344,-9.76071
22.34858,-0.15128,-0.35569,-9.77568
22.35861,-0.14679,-0.34536,-9.76296
22.36865,-0.15024,-0.36631,-9.76819
22.37869,-0.12929,-0.36287,-9.75921
22.38873,-0.14186,-0.36601,-9.75981
22.39876,-0.14275,-0.36287,-9.77508
22.4088,-0.15173,-0.36886,-9.7652
22.41884,-0.14859,-0.38038,-9.74305
22.42888,-0.15098,-0.38068,-9.76206
22.43892,-0.16505,-0.35419,-9.76954
22.44895,-0.15652,-0.36063,-9.76625
22.45899,-0.15906,-0.34521,-9.76206
22.46903,-0.16924,-0.35434,-9.77014
22.47906,-0.1444,-0.36287,-9.7631
22.4891,-0.15173,-0.36691,-9.75413
22.49914,-0.15338,-0.36616,-9.78121
22.50918,-0.14949,-0.37843,-9.75712
22.51922,-0.14635,-0.372,-9.75637
22.52925,-0.14829,-0.35808,-9.75383
22.53929,-0.14066,-0.36467,-9.767
22.54933,-0.14425,-0.35015,-9.75592
22.55937,-0.15069,-0.36018,-9.75757
22.5694,-0.17208,-0.35838,-9.75173
22.57944,-0.16954,-0.35973,-9.74141
22.58948,-0.16325,-0.36691,-9.74201
22.59952,-0.17298,-0.35823,-9.76924
22.60955,-0.16355,-0.3509,-9.76176
22.61959,-0.15547,-0.35494,-9.7465
22.62963,-0.1426,-0.37125,-9.75098
22.63967,-0.15009,-0.36362,-9.77283
22.6497,-0.13108,-0.37125,-9.76774
22.65974,-0.1426,-0.36542,-9.75203
22.66978,-0.15757,-0.35674,-9.74904
22.67982,-0.15592,-0.37185,-9.76475
22.68985,-0.15473,-0.35689,-9.76774
22.69989,-0.15817,-0.34985,-9.78016
22.70993,-0.17119,-0.35718,-9.75802
22.71997,-0.16475,-0.36242,-9.75188
22.73,-0.15487,-0.35853,-9.76804
22.74004,-0.15981,-0.35973,-9.7643
22.75008,-0.15981,-0.36272,-9.75278
22.76012,-0.16176,-0.36048,-9.75936
22.77015,-0.15877,-0.3509,-9.76071
22.78019,-0.14111,-0.36377,-9.75892
22.79023,-0.13841,-0.3494,-9.76685
22.80027,-0.14036,-0.36302,-9.75712
22.8103,-0.1447,-0.35898,-9.75877
22.82034,-0.15338,-0.36527,-9.76939
22.83038,-0.14664,-0.35165,-9.77493
22.84042,-0.15667,-0.36332,-9.76445
22.85046,-0.1634,-0.35674,-9.7444
22.86049,-0.16834,-0.3509,-9.74425
22.87053,-0.17912,-0.35823,-9.77208
22.88057,-0.16266,-0.353,-9.79468
22.8906,-0.14919,-0.36078,-9.77044
22.90064,-0.16266,-0.36467,-9.75069
22.91068,-0.15383,-0.36946,-9.74275
22.92072,-0.13018,-0.37634,-9.76804
22.93075,-0.13108,-0.36781,-9.7643
22.94079,-0.14814,-0.36003,-9.76296
22.95083,-0.14964,-0.36661,-9.76251
22.96087,-0.1652,-0.35614,-9.74829
22.97091,-0.15009,-0.37215,-9.77014
22.98094,-0.15667,-0.36137,-9.767
22.99098,-0.16924,-0.34776,-9.76924
23.00102,-0.17313,-0.35659,-9.7667
23.01106,-0.15487,-0.3322,-9.78675
23.02109,-0.15637,-0.35539,-9.76804
23.03113,-0.14964,-0.37155,-9.76744
23.04117,-0.15817,-0.36108,-9.77089
23.05121,-0.15592,-0.37095,-9.76296
23.06124,-0.13841,-0.36556,-9.75308
23.07128,-0.13722,-0.36676,-9.77134
23.08132,-0.13692,-0.38502,-9.7634
23.09136,-0.13991,-0.37454,-9.75981
23.10139,-0.15637,-0.36078,-9.77134
23.11143,-0.15832,-0.35255,-9.77523
23.12147,-0.17178,-0.35374,-9.77104
23.13151,-0.17223,-0.34656,-9.76924
23.14154,-0.17134,-0.34716,-9.75413
23.15158,-0.164,-0.34955,-9.77657
23.16162,-0.15862,-0.35165,-9.77702
23.17166,-0.15263,-0.34851,-9.76041
23.18169,-0.15158,-0.36751,-9.75862
23.19173,-0.14664,-0.36377,-9.75802
23.20177,-0.14605,-0.36841,-9.75592
23.21181,-0.14545,-0.36661,-9.76281
23.22185,-0.15248,-0.36078,-9.76819
23.23188,-0.15009,-0.35793,-9.76131
23.24192,-0.13976,-0.36661,-9.75503
23.25196,-0.14605,-0.36018,-9.76101
23.26199,-0.1637,-0.35808,-9.76146
23.27203,-0.17283,-0.3524,-9.77044
23.28207,-0.16729,-0.35389,-9.7667
23.29211,-0.16999,-0.35359,-9.75338
23.30215,-0.1432,-0.35778,-9.75383
23.31218,-0.13707,-0.36302,-9.77687
23.32222,-0.13677,-0.35075,-9.7646
23.33226,-0.12614,-0.36287,-9.75966
23.3423,-0.1462,-0.35763,-9.77403
23.35233,-0.13767,-0.37095,-9.76026
23.36237,-0.14006,-0.36407,-9.76086
23.37241,-0.15338,-0.35329,-9.7851
23.38245,-0.15353,-0.35674,-9.77044
23.39248,-0.1658,-0.3506,-9.76251
23.40252,-0.18136,-0.3521,-9.75817
23.41256,-0.17343,-0.34072,-9.75353
23.4226,-0.1631,-0.35733,-9.75622
23.43263,-0.1453,-0.35494,-9.77418
23.4433,-0.1462,-0.3705,-9.77193
23.45334,-0.1462,-0.3705,-9.77193
23.46337,-0.14365,-0.36242,-9.76266
23.47341,-0.1453,-0.36901,-9.75906
23.48345,-0.13617,-0.37978,-9.77777
23.49349,-0.15263,-0.36826,-9.77193
23.50352,-0.15892,-0.36571,-9.78121
23.51356,-0.15413,-0.36467,-9.75847
23.5236,-0.15143,-0.36287,-9.75712
23.53364,-0.15398,-0.36706,-9.75802
23.54367,-0.14934,-0.34821,-9.77568
23.55371,-0.14814,-0.34761,-9.77717
23.56375,-0.15667,-0.35793,-9.74889
23.57379,-0.17508,-0.34851,-9.75503
23.58382,-0.1444,-0.33833,-9.76595
23.59386,-0.14769,-0.36766,-9.77343
23.6039,-0.14829,-0.36631,-9.764
23.61394,-0.15113,-0.3714,-9.76251
23.62397,-0.14919,-0.36242,-9.75951
23.63401,-0.13647,-0.35883,-9.76984
23.64405,-0.14679,-0.36317,-9.7637
23.65409,-0.15128,-0.36078,-9.7667
23.66413,-0.15413,-0.37005,-9.75996
23.67416,-0.16176,-0.37095,-9.77014
23.6842,-0.15383,-0.36003,-9.77388
23.69424,-0.15218,-0.35404,-9.74784
23.70428,-0.17642,-0.35659,-9.7637
23.71431,-0.15892,-0.35629,-9.76131
23.72435,-0.15981,-0.36437,-9.76999
23.73439,-0.15233,-0.36422,-9.74679
23.74443,-0.14934,-0.36871,-9.75966
23.75446,-0.16236,-0.36137,-9.76071
23.7645,-0.15069,-0.36497,-9.76355
23.77454,-0.14231,-0.35958,-9.77178
23.78458,-0.15577,-0.36392,-9.76864
23.79461,-0.14934,-0.36751,-9.7652
23.80465,-0.14754,-0.34925,-9.75069
23.81469,-0.15592,-0.36317,-9.75517
23.82473,-0.15951,-0.36257,-9.7851
23.83476,-0.15667,-0.36362,-9.77508
23.8448,-0.16086,-0.35539,-9.75428
23.85484,-0.16789,-0.35075,-9.75188
23.86488,-0.15951,-0.36197,-9.75233
23.87491,-0.15502,-0.34282,-9.78435
23.88495,-0.1462,-0.36137,-9.76251
23.89499,-0.13812,-0.36796,-9.75951
23.90503,-0.15413,-0.37649,-9.76939
23.91506,-0.1453,-0.37574,-9.76834
23.9251,-0.14874,-0.36167,-9.76819
23.93514,-0.14799,-0.35689,-9.75517
23.94518,-0.14784,-0.36646,-9.74964
23.95521,-0.16161,-0.35629,-9.75847
23.96525,-0.15308,-0.36137,-9.76774
23.97529,-0.16026,-0.36467,-9.77792
23.98533,-0.15577,-0.37095,-9.76789
23.99536,-0.15173,-0.36841,-9.74784
24.0054,-0.15921,-0.37215,-9.75996
24.01544,-0.15218,-0.3705,-9.76221
24.02548,-0.1456,-0.36781,-9.76041
24.03551,-0.16176,-0.37335,-9.75458
24.04555,-0.15562,-0.36332,-9.75936
24.05559,-0.1447,-0.36242,-9.77822
24.06563,-0.15772,-0.35599,-9.77582
24.07566,-0.15667,-0.34192,-9.74769
24.0857,-0.1658,-0.36123,-9.75892
24.09574,-0.16281,-0.36167,-9.76894
24.10578,-0.17134,-0.35958,-9.75443
24.11582,-0.15951,-0.35614,-9.77777
24.12648,-0.16011,-0.37275,-9.74665
24.13652,-0.16011,-0.37275,-9.74665
24.14656,-0.1453,-0.35,-9.75996
24.15659,-0.1435,-0.35539,-9.78346
24.16663,-0.15532,-0.36676,-9.77627
24.17667,-0.14605,-0.36661,-9.74994
24.18671,-0.14545,-0.37589,-9.76954
24.19674,-0.15757,-0.36482,-9.76759
24.20678,-0.14874,-0.35943,-9.76924
24.21682,-0.15562,-0.35659,-9.77792
24.22686,-0.15473,-0.36302,-9.75742
24.23689,-0.13782,-0.35943,-9.75188
24.24693,-0.15413,-0.36362,-9.77089
24.25697,-0.1655,-0.3729,-9.767
24.26701,-0.15742,-0.36137,-9.75802
24.27704,-0.14814,-0.36123,-9.77328
24.28708,-0.15263,-0.36093,-9.76415
24.29712,-0.15263,-0.35838,-9.75787
24.30716,-0.1438,-0.35105,-9.76116
24.31719,-0.16685,-0.35464,-9.7658
24.32723,-0.15727,-0.36063,-9.75069
24.33727,-0.15173,-0.36706,-9.75413
24.34731,-0.14889,-0.35823,-9.7649
24.35734,-0.15233,-0.36616,-9.77223
24.36738,-0.164,-0.36272,-9.76685
24.37742,-0.16101,-0.36227,-9.75862
24.38746,-0.15607,-0.36108,-9.75727
24.39749,-0.14949,-0.36152,-9.76296
24.40753,-0.16251,-0.36676,-9.77568
24.41757,-0.17029,-0.36616,-9.75921
24.42761,-0.15742,-0.35135,-9.76535
24.43764,-0.14515,-0.36347,-9.77418
24.44768,-0.15353,-0.36407,-9.76056
24.45772,-0.15981,-0.36766,-9.7652
24.46776,-0.15113,-0.36272,-9.75862
24.47779,-0.16954,-0.36542,-9.75757
24.48783,-0.14964,-0.35793,-9.76206
24.49787,-0.14575,-0.3708,-9.76819
24.50791,-0.14829,-0.36182,-9.74844
24.51795,-0.13662,-0.36392,-9.75802
24.52798,-0.14664,-0.35314,-9.767
24.53802,-0.1649,-0.35868,-9.76326
24.54806,-0.16221,-0.35943,-9.77403
24.55809,-0.15577,-0.35374,-9.76041
24.56813,-0.14679,-0.3711,-9.75233
24.57817,-0.14036,-0.36467,-9.76191
24.58821,-0.15218,-0.35898,-9.75892
24.59825,-0.15517,-0.36227,-9.76879
24.60828,-0.1453,-0.35988,-9.75054
24.61832,-0.14455,-0.3497,-9.77702
24.62836,-0.15712,-0.35524,-9.76984
24.6384,-0.15502,-0.36108,-9.74904
24.64843,-0.14829,-0.36093,-9.76685
24.65847,-0.15233,-0.3717,-9.76685
24.66851,-0.13901,-0.36901,-9.76655
24.67855,-0.14949,-0.36272,-9.75233
24.68858,-0.14889,-0.36123,-9.75009
24.69862,-0.14934,-0.36452,-9.76236
24.70866,-0.15188,-0.35778,-9.75084
24.7187,-0.15428,-0.35285,-9.76251
24.72873,-0.15607,-0.36691,-9.77612
24.73877,-0.15098,-0.37454,-9.75682
24.74881,-0.15338,-0.37215,-9.76475
24.75885,-0.15847,-0.36497,-9.77568
24.76888,-0.15996,-0.36706,-9.76864
24.77892,-0.15787,-0.36721,-9.75428
24.78896,-0.15906,-0.35359,-9.75622
24.799,-0.15203,-0.36078,-9.76864
24.80903,-0.1438,-0.36661,-9.75607
24.81907,-0.15473,-0.36542,-9.76834
24.82911,-0.13707,-0.36781,-9.75024
24.83915,-0.15069,-0.36287,-9.75951
24.84918,-0.15248,-0.36422,-9.75832
24.85922,-0.15323,-0.35479,-9.76744
24.86926,-0.1634,-0.35015,-9.77597
24.8793,-0.15547,-0.36542,-9.75847
24.88933,-0.15562,-0.36317,-9.76176
24.89937,-0.16086,-0.35524,-9.78525
24.90941,-0.1432,-0.36048,-9.75428
24.91945,-0.15817,-0.36721,-9.75278
24.92948,-0.14874,-0.36332,-9.76101
24.93952,-0.14694,-0.35733,-9.74874
24.94956,-0.14664,-0.35958,-9.75562
24.9596,-0.14515,-0.35838,-9.75996
24.96964,-0.15906,-0.36497,-9.76685
24.97967,-0.14739,-0.35584,-9.75009
24.98971,-0.15607,-0.36601,-9.7637
24.99975,-0.15877,-0.36018,-9.79199
25.00978,-0.15667,-0.35629,-9.76146
25.01982,-0.15951,-0.35823,-9.76131
25.02986,-0.15278,-0.36901,-9.76789
25.0399,-0.15847,-0.36392,-9.7664
25.04994,-0.164,-0.35943,-9.77074
25.05997,-0.15577,-0.35973,-9.77059
25.07001,-0.14904,-0.36541,-9.76206
25.08005,-0.16116,-0.36287,-9.75936
25.09009,-0.15921,-0.36452,-9.78465
25.10012,-0.1441,-0.36347,-9.76879
25.11016,-0.14829,-0.36751,-9.74964
25.1202,-0.15532,-0.3702,-9.75443
25.13024,-0.15338,-0.36796,-9.77627
25.14027,-0.14934,-0.35808,-9.75921
25.15031,-0.15368,-0.35389,-9.74964
25.16035,-0.16535,-0.35539,-9.75637
25.17039,-0.15592,-0.35943,-9.75233
25.18042,-0.14575,-0.3515,-9.75308
25.19046,-0.15742,-0.34851,-9.76086
25.2005,-0.15802,-0.36257,-9.77089
25.21054,-0.15757,-0.36197,-9.75907
25.22057,-0.15862,-0.35898,-9.74919
25.23061,-0.14171,-0.36616,-9.7646
25.24065,-0.16086,-0.36871,-9.75877
25.25069,-0.14679,-0.36571,-9.74769
25.26072,-0.14784,-0.35868,-9.74784
25.27076,-0.15622,-0.35928,-9.76625
25.2808,-0.14575,-0.36242,-9.7441
25.29084,-0.1453,-0.35763,-9.74201
25.30087,-0.15098,-0.35404,-9.75907
25.31091,-0.16296,-0.34028,-9.76326
25.32095,-0.15248,-0.36272,-9.77582
25.33099,-0.15473,-0.36901,-9.75892
25.34102,-0.15188,-0.36197,-9.7637
25.35106,-0.15487,-0.36556,-9.7637
25.3611,-0.14994,-0.36302,-9.7634
25.37114,-0.15996,-0.35539,-9.77283
25.38118,-0.15054,-0.35823,-9.76954
25.39121,-0.15517,-0.36766,-9.75443
25.40125,-0.15278,-0.3726,-9.77792
25.41129,-0.15054,-0.36826,-9.76729
25.42133,-0.15921,-0.35883,-9.75966
25.43136,-0.15368,-0.35659,-9.77478
25.4414,-0.15413,-0.36287,-9.76445
25.45144,-0.14889,-0.37155,-9.75143
25.46148,-0.15592,-0.36167,-9.75757
25.47151,-0.15622,-0.35165,-9.76176
25.48155,-0.15263,-0.35359,-9.77268
25.49159,-0.15293,-0.35973,-9.76296
25.50163,-0.14994,-0.37065,-9.767
25.51166,-0.14635,-0.36811,-9.76281
25.5217,-0.15218,-0.36227,-9.75278
25.53174,-0.15173,-0.36287,-9.77388
25.54178,-0.15652,-0.37065,-9.77747
25.55181,-0.15083,-0.35509,-9.75757
25.56185,-0.15981,-0.35569,-9.75293
25.57189,-0.15398,-0.36646,-9.77268
25.58193,-0.15368,-0.36826,-9.79139
25.59196,-0.14799,-0.35599,-9.75742
25.602,-0.15308,-0.36377,-9.75742
25.61204,-0.14275,-0.3708,-9.76535
25.62208,-0.15398,-0.36392,-9.77792
25.63211,-0.15652,-0.35973,-9.77448
25.64215,-0.15622,-0.35868,-9.75473
25.65219,-0.15353,-0.36631,-9.74799
25.66223,-0.15906,-0.36751,-9.75622
25.67226,-0.15817,-0.36287,-9.76176
25.6823,-0.15637,-0.36063,-9.77163
25.69234,-0.15502,-0.36242,-9.77822
25.70238,-0.15951,-0.36227,-9.77074
25.71242,-0.1432,-0.36063,-9.75413
25.72245,-0.14784,-0.3699,-9.75039
25.73249,-0.14664,-0.3717,-9.75906
25.74253,-0.14904,-0.35928,-9.7649
25.75257,-0.1465,-0.35718,-9.75233
25.7626,-0.15128,-0.35494,-9.75592
25.77264,-0.14994,-0.35629,-9.75547
25.78268,-0.15368,-0.36197,-9.75921
25.79272,-0.16161,-0.3702,-9.75024
25.80275,-0.16131,-0.36901,-9.76281
25.81279,-0.15517,-0.37305,-9.77238
25.82283,-0.14605,-0.3708,-9.74814
25.83287,-0.15443,-0.36616,-9.76281
25.8429,-0.14231,-0.36048,-9.76565
25.85294,-0.1462,-0.36601,-9.75577
25.86298,-0.15772,-0.35659,-9.77912
25.87302,-0.15338,-0.3503,-9.76834
25.88305,-0.15278,-0.35898,-9.75981
25.89309,-0.14335,-0.36916,-9.75413
25.90313,-0.16281,-0.36676,-9.76655
25.91317,-0.14934,-0.35494,-9.77373
25.9232,-0.15906,-0.35539,-9.75622
25.93324,-0.16161,-0.36901,-9.74934
25.94328,-0.16056,-0.35629,-9.76774
25.95332,-0.15981,-0.34985,-9.74784
25.96335,-0.1465,-0.37245,-9.75712
25.97339,-0.14919,-0.35823,-9.77223
25.98343,-0.14739,-0.36796,-9.75473
25.99347,-0.15113,-0.36901,-9.76475
26.0035,-0.15712,-0.35943,-9.77223
26.01354,-0.14859,-0.35255,-9.77463
26.02358,-0.16071,-0.36512,-9.75098
26.03362,-0.15502,-0.36542,-9.76191
26.04366,-0.15652,-0.35823,-9.76236
26.05369,-0.16086,-0.35958,-9.76655
26.06373,-0.14964,-0.36796,-9.76655
26.07377,-0.15936,-0.36736,-9.7634
26.08381,-0.14934,-0.36347,-9.76909
26.09384,-0.14949,-0.36781,-9.75517
26.10388,-0.14859,-0.35689,-9.77523
26.11392,-0.14769,-0.37035,-9.77433
26.12396,-0.1435,-0.36078,-9.75188
26.13399,-0.15742,-0.35524,-9.75368
26.14403,-0.16984,-0.36018,-9.76011
26.15407,-0.15368,-0.35479,-9.76505
26.16411,-0.14964,-0.35823,-9.76086
26.17414,-0.16056,-0.35614,-9.77268
26.18418,-0.15742,-0.36063,-9.77029
26.19422,-0.16116,-0.36063,-9.7658
26.20426,-0.15727,-0.36676,-9.75772
26.21429,-0.15487,-0.36018,-9.7658
26.22433,-0.1664,-0.3732,-9.75757
26.23437,-0.15862,-0.36482,-9.75413
26.24441,-0.14605,-0.35883,-9.77283
26.25444,-0.14799,-0.36661,-9.77732
26.26448,-0.15398,-0.38038,-9.76311
26.27452,-0.14515,-0.35554,-9.76011
26.28456,-0.15308,-0.35225,-9.76101
26.29459,-0.15487,-0.36796,-9.75188
26.30463,-0.15817,-0.36317,-9.76625
26.31467,-0.15218,-0.35704,-9.76086
26.32471,-0.15727,-0.36033,-9.75353
26.33474,-0.14949,-0.35614,-9.7637
26.34478,-0.15458,-0.35748,-9.78346
26.35482,-0.13797,-0.34955,-9.75921
26.36486,-0.14754,-0.35973,-9.76176
26.3749,-0.15592,-0.37439,-9.75143
26.38493,-0.1456,-0.36571,-9.76999
26.39497,-0.15009,-0.35524,-9.77388
26.40501,-0.1444,-0.35494,-9.75278
26.41505,-0.14201,-0.36497,-9.75847
26.42508,-0.16385,-0.36482,-9.7643
26.43512,-0.14635,-0.38262,-9.74365
26.44516,-0.14335,-0.3723,-9.77283
26.4552,-0.15353,-0.3711,-9.76999
26.46523,-0.15158,-0.36796,-9.7673
26.47527,-0.15682,-0.35329,-9.74919
26.48531,-0.14545,-0.36556,-9.74275
26.49535,-0.15742,-0.34836,-9.76326
26.50538,-0.17074,-0.34925,-9.76206
26.51542,-0.16011,-0.34716,-9.7655
26.52546,-0.17104,-0.34013,-9.77178
26.5355,-0.17283,-0.34477,-9.73632
26.54553,-0.16789,-0.34342,-9.74036
26.55557,-0.16984,-0.33878,-9.76221
26.56561,-0.15547,-0.34297,-9.75892
26.57565,-0.15338,-0.33983,-9.76655
26.58568,-0.14814,-0.36437,-9.74904
26.59572,-0.14545,-0.36706,-9.75158
26.60576,-0.13587,-0.37394,-9.75547
26.6158,-0.12599,-0.3717,-9.77493
26.62583,-0.14186,-0.38128,-9.77837
26.63587,-0.14051,-0.37589,-9.76311
26.64591,-0.15443,-0.37739,-9.76251
26.65595,-0.16894,-0.37095,-9.77149
26.66599,-0.17074,-0.36347,-9.75877
26.67602,-0.17523,-0.36452,-9.75862
26.68606,-0.17942,-0.36841,-9.77298
26.6961,-0.16251,-0.37409,-9.77508
26.70614,-0.15562,-0.36317,-9.75263
26.71617,-0.14934,-0.36347,-9.76071
26.72621,-0.15054,-0.36586,-9.76161
26.73625,-0.15547,-0.36571,-9.75787
26.74629,-0.13856,-0.35763,-9.76026
26.75632,-0.14949,-0.35988,-9.77882
26.76636,-0.14635,-0.3518,-9.75757
26.7764,-0.14021,-0.34761,-9.75069
26.78644,-0.15054,-0.34866,-9.76086
26.79647,-0.15877,-0.33953,-9.77134
26.80651,-0.15996,-0.34881,-9.77119
26.81655,-0.16834,-0.35419,-9.76415
26.82659,-0.16191,-0.353,-9.75727
26.83662,-0.17882,-0.35928,-9.76206
26.84666,-0.1637,-0.35943,-9.77403
26.8567,-0.16131,-0.35674,-9.76969
26.86674,-0.13497,-0.38217,-9.76176
26.87677,-0.14141,-0.37858,-9.75802
26.88681,-0.14171,-0.37933,-9.76206
26.89685,-0.14979,-0.36826,-9.75727
26.90689,-0.14844,-0.3714,-9.75577
26.91692,-0.14679,-0.36392,-9.77478
26.92696,-0.15308,-0.36317,-9.77119
26.937,-0.14859,-0.35374,-9.75832
26.94704,-0.1667,-0.35449,-9.76954
26.95707,-0.15428,-0.34028,-9.77119
26.96711,-0.16954,-0.3316,-9.7459
26.97715,-0.16221,-0.35195,-9.7447
26.98719,-0.16715,-0.35105,-9.74335
26.99723,-0.1637,-0.35614,-9.75862
27.00726,-0.14245,-0.35898,-9.76804
27.0173,-0.13348,-0.34761,-9.75308
27.02734,-0.13782,-0.35494,-9.78316
27.03738,-0.14066,-0.36497,-9.75772
27.04741,-0.14111,-0.37858,-9.75727
27.05745,-0.14949,-0.37769,-9.76774
27.06749,-0.14305,-0.36571,-9.75847
27.07753,-0.16251,-0.36078,-9.76041
27.08756,-0.1643,-0.36571,-9.75278
27.0976,-0.15009,-0.36886,-9.77358
27.10764,-0.1658,-0.35255,-9.75233
27.11768,-0.1634,-0.36691,-9.7643
27.12771,-0.1661,-0.36167,-9.77044
27.13775,-0.14021,-0.36422,-9.78106
27.14779,-0.14111,-0.36407,-9.75951
27.15783,-0.13961,-0.36556,-9.76834
27.16786,-0.15009,-0.36527,-9.76535
27.1779,-0.14186,-0.35509,-9.75907
27.18794,-0.13827,-0.35778,-9.76251
27.19798,-0.15757,-0.36197,-9.77343
27.20801,-0.16759,-0.35883,-9.7462
27.21805,-0.15233,-0.34746,-9.75368
27.22809,-0.1631,-0.35434,-9.77582
27.23813,-0.164,-0.35674,-9.76999
27.24816,-0.16146,-0.36332,-9.74739
27.2582,-0.15817,-0.36227,-9.75443
27.26824,-0.1456,-0.36437,-9.76251
27.27828,-0.14844,-0.37888,-9.75862
27.28832,-0.15772,-0.36841,-9.77912
27.29835,-0.14275,-0.37095,-9.76715
27.30839,-0.15697,-0.37679,-9.76505
27.31843,-0.16191,-0.36916,-9.75562
27.32847,-0.15517,-0.37275,-9.77283
27.3385,-0.14994,-0.36422,-9.75143
27.34854,-0.15787,-0.3524,-9.75727
27.35858,-0.16879,-0.35689,-9.76625
27.36862,-0.14036,-0.35838,-9.7432
27.37865,-0.14664,-0.37185,-9.75562
27.38869,-0.15218,-0.35479,-9.75353
27.39873,-0.14245,-0.35075,-9.79184
27.40877,-0.14081,-0.3518,-9.75817
27.4188,-0.14111,-0.3506,-9.7634
27.42884,-0.15682,-0.36167,-9.76954
27.43888,-0.16325,-0.36691,-9.75293
27.44954,-0.15921,-0.35599,-9.77029
27.45958,-0.15921,-0.35599,-9.77029
27.46962,-0.15712,-0.35509,-9.76625
27.47966,-0.16296,-0.34955,-9.74694
27.48969,-0.15039,-0.36093,-9.75293
27.49973,-0.16221,-0.37215,-9.77014
27.50977,-0.15218,-0.36422,-9.76251
27.51981,-0.15712,-0.37664,-9.74709
27.52984,-0.13901,-0.37813,-9.76939
27.53988,-0.14455,-0.36108,-9.75787
27.54992,-0.145,-0.36033,-9.75697
27.55996,-0.14874,-0.36152,-9.76131
27.56999,-0.15502,-0.35569,-9.77328
27.58003,-0.15069,-0.36227,-9.74066
27.59007,-0.15532,-0.36796,-9.75443
27.60011,-0.15862,-0.36736,-9.76685
27.61014,-0.1667,-0.35793,-9.75772
27.62018,-0.15233,-0.35763,-9.74754
27.63022,-0.16266,-0.36527,-9.76565
27.64026,-0.15203,-0.36826,-9.77433
27.65029,-0.15024,-0.3702,-9.73916
27.66033,-0.15697,-0.36377,-9.76026
27.67037,-0.14635,-0.36227,-9.78809
27.68041,-0.15128,-0.36227,-9.76296
27.69045,-0.1447,-0.37903,-9.74784
27.70048,-0.1643,-0.37484,-9.75951
27.71052,-0.14709,-0.35793,-9.75353
27.72056,-0.16131,-0.35374,-9.75802
27.7306,-0.15098,-0.36018,-9.76939
27.74063,-0.16266,-0.3708,-9.78495
27.75067,-0.16505,-0.35075,-9.7465
27.76071,-0.14844,-0.35689,-9.75592
27.77075,-0.15098,-0.35554,-9.767
27.78078,-0.15802,-0.37005,-9.76595
27.79082,-0.15787,-0.35539,-9.74949
27.80086,-0.15128,-0.36048,-9.7673
27.8109,-0.13841,-0.36497,-9.77642
27.82093,-0.14829,-0.36332,-9.76864
27.83097,-0.15951,-0.3518,-9.76101
27.84101,-0.15757,-0.36317,-9.74904
27.85105,-0.16296,-0.36212,-9.75637
27.86108,-0.15383,-0.37035,-9.75637
27.87112,-0.15428,-0.36616,-9.77418
27.88116,-0.15368,-0.35659,-9.75637
27.8912,-0.16176,-0.34611,-9.75577
27.90123,-0.15233,-0.35285,-9.76236
27.91127,-0.14889,-0.35584,-9.77568
27.92131,-0.13856,-0.35374,-9.75981
27.93135,-0.15203,-0.3735,-9.74919
27.94138,-0.15592,-0.35704,-9.75622
27.95142,-0.14694,-0.34821,-9.77104
27.96146,-0.15458,-0.34117,-9.75996
27.9715,-0.16071,-0.36512,-9.77014
27.98153,-0.16715,-0.37245,-9.74934
27.99157,-0.15712,-0.36407,-9.7435
28.00161,-0.17208,-0.37544,-9.77972
28.01165,-0.18346,-0.35733,-9.77493
28.02168,-0.1655,-0.35763,-9.75862
28.03172,-0.15802,-0.37529,-9.76355
28.04176,-0.16505,-0.38008,-9.764
28.0518,-0.16505,-0.38008,-9.764
28.06184,-0.15398,-0.38053,-9.7432
28.07187,-0.14799,-0.38562,-9.77612
28.08191,-0.12749,-0.3729,-9.75817
28.09195,-0.11956,-0.35329,-9.73901
28.10199,-0.11776,-0.33923,-9.75667
28.11202,-0.13123,-0.33249,-9.77208
28.12206,-0.14335,-0.31978,-9.75248
28.13273,-0.16909,-0.33384,-9.76146
28.14276,-0.16969,-0.35225,-9.74889
28.1528,-0.17777,-0.36975,-9.75308
28.16284,-0.17148,-0.38008,-9.78914
28.17288,-0.15817,-0.34581,-9.78091
28.18291,-0.16625,-0.33639,-9.75428
28.19295,-0.15667,-0.36452,-9.75832
28.20299,-0.1459,-0.40133,-9.77403
28.21303,-0.13243,-0.40821,-9.78286
28.22306,-0.14679,-0.40208,-9.75517
28.2331,-0.16355,-0.3913,-9.75637
28.24314,-0.16206,-0.3922,-9.75158
28.25318,-0.14694,-0.37664,-9.7637
28.26321,-0.13198,-0.36841,-9.77493
28.27325,-0.16266,-0.36407,-9.77942
28.28329,-0.17837,-0.37305,-9.75488
28.29333,-0.1661,-0.3705,-9.76445
28.30336,-0.15428,-0.37679,-9.77523
28.3134,-0.14395,-0.36886,-9.75847
28.32344,-0.13138,-0.35314,-9.75787
28.33348,-0.15024,-0.35569,-9.78151
28.34352,-0.1465,-0.3322,-9.76685
28.35355,-0.13048,-0.32995,-9.74694
28.36359,-0.1224,-0.34716,-9.75622
28.37363,-0.15323,-0.33833,-9.76146
28.38367,-0.15532,-0.32756,-9.7637
28.3937,-0.17134,-0.34087,-9.76326
28.40374,-0.19513,-0.34387,-9.75338
28.41378,-0.18256,-0.34596,-9.75951
28.42381,-0.16729,-0.36093,-9.7634
28.43385,-0.16505,-0.37619,-9.7649
28.44389,-0.17163,-0.39025,-9.77762
28.45393,-0.15338,-0.394,-9.77792
28.46396,-0.13946,-0.40926,-9.78181
28.474,-0.13033,-0.41539,-9.77104
28.48404,-0.13976,-0.40028,-9.75712
28.49408,-0.13437,-0.37933,-9.76251
28.50412,-0.13108,-0.36676,-9.78001
28.51415,-0.11941,-0.34417,-9.77014
28.52419,-0.14694,-0.36482,-9.75517
28.53423,-0.15263,-0.36482,-9.78091
28.54427,-0.15847,-0.33983,-9.75802
28.5543,-0.17148,-0.33683,-9.74994
28.56434,-0.1863,-0.33339,-9.7673
28.57438,-0.17148,-0.32142,-9.76774
28.58442,-0.14874,-0.33444,-9.76101
28.59445,-0.14979,-0.34447,-9.75637
28.60449,-0.15293,-0.36317,-9.76116
28.61453,-0.145,-0.36272,-9.75443
28.62457,-0.1441,-0.38592,-9.74365
28.6346,-0.1453,-0.40447,-9.78196
28.64464,-0.13288,-0.38996,-9.77418
28.65468,-0.13722,-0.36407,-9.76655
28.66472,-0.13901,-0.3732,-9.76894
28.67475,-0.1432,-0.38607,-9.77134
28.68479,-0.1456,-0.38472,-9.76715
28.69483,-0.14799,-0.35748,-9.75473
28.70487,-0.15667,-0.3527,-9.76804
28.71491,-0.17059,-0.33414,-9.76251
28.72494,-0.16939,-0.33205,-9.75054
28.73498,-0.15263,-0.33369,-9.76355
28.74502,-0.17493,-0.34043,-9.74275
28.75505,-0.17134,-0.3509,-9.74006
28.76509,-0.16221,-0.34222,-9.77029
28.77513,-0.15712,-0.35823,-9.76774
28.78517,-0.15368,-0.35479,-9.76176
28.79521,-0.15098,-0.37769,-9.74754
28.80524,-0.15532,-0.3943,-9.77672
28.81528,-0.14111,-0.38651,-9.77014
28.82532,-0.1435,-0.38547,-9.76385
28.83536,-0.15502,-0.39011,-9.76475
28.84539,-0.16355,-0.37559,-9.76116
28.85543,-0.14979,-0.36721,-9.74799
28.86547,-0.15966,-0.35704,-9.74859
28.87551,-0.16954,-0.36946,-9.77104
28.88554,-0.164,-0.35898,-9.76026
28.89558,-0.15951,-0.36556,-9.74455
28.90562,-0.15428,-0.35913,-9.77597
28.91566,-0.15817,-0.36003,-9.764
28.92569,-0.15143,-0.35599,-9.76146
28.93573,-0.14245,-0.35733,-9.76131
28.94577,-0.13632,-0.36242,-9.77971
28.95581,-0.13737,-0.36227,-9.74859
28.96584,-0.14575,-0.36362,-9.76789
28.97588,-0.13408,-0.36257,-9.75682
28.98592,-0.15173,-0.36871,-9.74814
28.99596,-0.16251,-0.36527,-9.75338
29.00599,-0.15054,-0.37858,-9.77298
29.01603,-0.15727,-0.36542,-9.76475
29.02607,-0.15113,-0.36018,-9.75413
29.03611,-0.15547,-0.3497,-9.76715
29.04615,-0.15113,-0.34581,-9.7646
29.05618,-0.16116,-0.35778,-9.75203
29.06622,-0.14739,-0.3732,-9.74605
29.07626,-0.15188,-0.38442,-9.77403
29.08629,-0.1453,-0.35973,-9.78705
29.09633,-0.14096,-0.35674,-9.74844
29.10637,-0.15158,-0.36751,-9.75622
29.11641,-0.14709,-0.37005,-9.77538
29.12645,-0.15039,-0.37005,-9.75233
29.13648,-0.14141,-0.38232,-9.75158
29.14652,-0.1462,-0.37365,-9.77223
29.15656,-0.14485,-0.3708,-9.75832
29.1666,-0.14425,-0.36946,-9.74575
29.17663,-0.1652,-0.3524,-9.76804
29.18667,-0.15353,-0.35404,-9.77523
29.19671,-0.16909,-0.35674,-9.74335
29.20675,-0.15637,-0.35823,-9.76041
29.21678,-0.16774,-0.35883,-9.76759
29.22682,-0.17358,-0.36347,-9.75907
29.23686,-0.16415,-0.3527,-9.75517
29.2469,-0.16251,-0.36182,-9.79139
29.25693,-0.15039,-0.3708,-9.77059
29.26697,-0.15173,-0.37095,-9.76281
29.27701,-0.15592,-0.39415,-9.77672
29.28705,-0.13782,-0.37903,-9.75892
29.29708,-0.13587,-0.37379,-9.75203
29.30712,-0.13437,-0.38038,-9.7649
29.31716,-0.14694,-0.38577,-9.75936
29.3272,-0.13542,-0.37065,-9.75936
29.33723,-0.15173,-0.35554,-9.75098
29.34727,-0.17163,-0.35808,-9.76056
29.35731,-0.1631,-0.34402,-9.75802
29.36735,-0.17657,-0.33953,-9.76221
29.37738,-0.1854,-0.33564,-9.75936
29.38742,-0.1866,-0.34851,-9.74784
29.39746,-0.17328,-0.34596,-9.74784
29.4075,-0.15966,-0.34731,-9.76191
29.41753,-0.1643,-0.35853,-9.76655
29.42757,-0.14365,-0.37409,-9.78929
29.43761,-0.12285,-0.3705,-9.76655
29.44765,-0.13677,-0.3708,-9.75413
29.45769,-0.15383,-0.39908,-9.76146
29.46772,-0.13408,-0.3934,-9.77298
29.47776,-0.13004,-0.38247,-9.78555
29.4878,-0.15667,-0.35913,-9.78121
29.49784,-0.16759,-0.34222,-9.75907
29.50787,-0.17897,-0.35,-9.76475
29.51791,-0.16355,-0.35524,-9.76849
29.52795,-0.17552,-0.36108,-9.7649
29.53799,-0.1652,-0.36212,-9.76864
29.54802,-0.19094,-0.36931,-9.75473
29.55806,-0.16236,-0.37589,-9.76655
29.5681,-0.13378,-0.36033,-9.76041
29.57814,-0.12764,-0.36571,-9.76715
29.58817,-0.13048,-0.3711,-9.75981
29.59821,-0.13467,-0.35629,-9.75517
29.60825,-0.13557,-0.35689,-9.75862
29.61829,-0.13617,-0.37484,-9.77433
29.62832,-0.15577,-0.36826,-9.77463
29.63836,-0.164,-0.34791,-9.75592
29.6484,-0.1842,-0.33773,-9.75173
29.65844,-0.1875,-0.35195,-9.76924
29.66847,-0.17687,-0.35419,-9.78046
29.67851,-0.164,-0.37604,-9.77523
29.68855,-0.17253,-0.38113,-9.75383
29.69859,-0.15532,-0.36931,-9.75323
29.70862,-0.14231,-0.3726,-9.76834
29.71866,-0.1034,-0.37948,-9.78091
29.7287,-0.1019,-0.38038,-9.77059
29.73874,-0.11372,-0.37065,-9.73886
29.74878,-0.13886,-0.35778,-9.76116
29.75881,-0.1245,-0.33818,-9.80261
29.76885,-0.13482,-0.34177,-9.77433
29.77889,-0.17433,-0.34791,-9.74335
29.78893,-0.18974,-0.35165,-9.7667
29.79896,-0.18106,-0.31768,-9.75158
29.809,-0.19004,-0.31125,-9.72839
29.81904,-0.18735,-0.31813,-9.74889
29.82908,-0.15817,-0.34267,-9.76236
29.83911,-0.13497,-0.35763,-9.74021
29.84915,-0.12974,-0.372,-9.76909
29.85919,-0.14036,-0.37215,-9.7869
29.86923,-0.15323,-0.3696,-9.75682
29.87926,-0.14994,-0.37739,-9.75128
29.8893,-0.15203,-0.37739,-9.7854
29.89934,-0.15143,-0.37694,-9.77313
29.90938,-0.16176,-0.37574,-9.74889
29.91942,-0.16729,-0.38173,-9.77014
29.92945,-0.16804,-0.35344,-9.77942
29.93949,-0.15517,-0.34132,-9.75892
29.94953,-0.16101,-0.34417,-9.73662
29.95956,-0.16236,-0.33923,-9.77044
29.9696,-0.15188,-0.34177,-9.7649
29.97964,-0.14694,-0.32397,-9.75667
29.98968,-0.14709,-0.32711,-9.76475
29.99971,-0.16445,-0.2879,-9.76759
30.00975,-0.16131,-0.31095,-9.72121
30.01979,-0.13378,-0.33279,-9.75877
30.02983,-0.13991,-0.34955,-9.77014
30.03987,-0.16939,-0.36317,-9.7444
30.0499,-0.17493,-0.3711,-9.73452
30.05994,-0.15293,-0.39549,-9.77807
30.06998,-0.11253,-0.39804,-9.77747
30.08002,-0.13452,-0.38786,-9.77493
30.09005,-0.15832,-0.38382,-9.75338
30.10009,-0.16146,-0.38262,-9.76834
30.11013,-0.16116,-0.36332,-9.76445
30.12017,-0.13213,-0.38292,-9.78016
30.1302,-0.15398,-0.38891,-9.77044
30.14024,-0.17193,-0.34611,-9.74141
30.15028,-0.16685,-0.33624,-9.75981
30.16032,-0.16296,-0.30287,-9.76595
30.17035,-0.14201,-0.32127,-9.76146
30.18039,-0.13767,-0.35045,-9.74754
30.19043,-0.13722,-0.36332,-9.76804
30.20047,-0.12689,-0.34566,-9.77358
30.2105,-0.15473,-0.35778,-9.75712
30.22054,-0.15667,-0.37245,-9.76999
30.23058,-0.14904,-0.3723,-9.78031
30.24062,-0.15517,-0.37305,-9.76161
30.25065,-0.15892,-0.36377,-9.76759
30.26069,-0.17642,-0.35569,-9.7842
30.27073,-0.16864,-0.36137,-9.76311
30.28077,-0.14754,-0.37409,-9.7432
30.29081,-0.15173,-0.38038,-9.78061
30.30084,-0.14754,-0.353,-9.77523
30.31088,-0.13782,-0.33429,-9.73168
30.32092,-0.13437,-0.33728,-9.75532
30.33096,-0.1444,-0.34462,-9.77582
30.34099,-0.12989,-0.36003,-9.73961
30.35103,-0.14066,-0.35479,-9.73901
30.36107,-0.167,-0.34821,-9.76206
30.37111,-0.16266,-0.35778,-9.76849
30.38114,-0.1441,-0.3494,-9.76146
30.39118,-0.1465,-0.35075,-9.75428
30.40122,-0.17493,-0.35644,-9.76774
30.41126,-0.164,-0.35105,-9.77582
30.42129,-0.1649,-0.35599,-9.77403
30.43133,-0.15293,-0.38053,-9.77208
30.44137,-0.15532,-0.36886,-9.75832
30.45141,-0.15547,-0.35674,-9.75368
30.46145,-0.13632,-0.33624,-9.78196
30.47148,-0.13527,-0.31828,-9.77358
30.48152,-0.15817,-0.34297,-9.76026
30.49156,-0.15203,-0.35689,-9.7649
30.5016,-0.15039,-0.35344,-9.77493
30.51163,-0.1432,-0.33923,-9.75068
30.52167,-0.16325,-0.35509,-9.74395
30.53171,-0.17148,-0.35165,-9.79049
30.54175,-0.14335,-0.35883,-9.76999
30.55178,-0.14769,-0.35689,-9.75084
30.56182,-0.17313,-0.3708,-9.76251
30.57186,-0.15562,-0.3717,-9.77014
30.5819,-0.14829,-0.35913,-9.75742
30.59193,-0.13662,-0.34462,-9.75218
30.60197,-0.14949,-0.36272,-9.79169
30.61201,-0.15832,-0.35389,-9.7646
30.62205,-0.15083,-0.33848,-9.74515
30.63208,-0.1462,-0.34342,-9.77702
30.64212,-0.14694,-0.34237,-9.77268
30.65216,-0.15652,-0.34611,-9.74575
30.6622,-0.1453,-0.35,-9.75443
30.67223,-0.14949,-0.3518,-9.78091
30.68227,-0.1646,-0.34881,-9.76311
30.69231,-0.16655,-0.34821,-9.75323
30.70235,-0.15338,-0.36018,-9.76864
30.71239,-0.15832,-0.35689,-9.76954
30.72242,-0.16969,-0.34895,-9.767
30.73246,-0.17059,-0.36287,-9.77089
30.7425,-0.15592,-0.36108,-9.75158
30.75254,-0.1456,-0.35614,-9.75054
30.76257,-0.15113,-0.36467,-9.76984
30.77261,-0.15682,-0.34626,-9.75667
30.78265,-0.14575,-0.34686,-9.75113
30.79269,-0.15069,-0.34447,-9.76296
30.80272,-0.1441,-0.35539,-9.77193
30.81276,-0.13946,-0.35255,-9.75458
30.8228,-0.15862,-0.35434,-9.75547
30.83284,-0.17193,-0.36003,-9.75877
30.84287,-0.15667,-0.36946,-9.76311
30.85291,-0.1462,-0.35763,-9.75532
30.86295,-0.14889,-0.35808,-9.75892
30.87299,-0.16101,-0.35868,-9.76475
30.88302,-0.17148,-0.36706,-9.75233
30.89306,-0.14709,-0.36197,-9.76625
30.9031,-0.15577,-0.34806,-9.75682
30.91314,-0.16325,-0.34716,-9.76071
30.92317,-0.15862,-0.35509,-9.77014
30.93321,-0.13976,-0.34566,-9.77867
30.94325,-0.14485,-0.34791,-9.76924
30.95329,-0.15892,-0.34895,-9.745
30.96332,-0.15847,-0.35569,-9.75263
30.97336,-0.14994,-0.36542,-9.7851
30.9834,-0.14066,-0.35554,-9.75966
30.99344,-0.16969,-0.36347,-9.76206
31.00347,-0.16445,-0.34701,-9.78316
31.01351,-0.15128,-0.33025,-9.76535
31.02355,-0.14739,-0.3515,-9.75413
31.03359,-0.17777,-0.3497,-9.77792
31.04363,-0.17463,-0.36886,-9.76191
31.05366,-0.14694,-0.35629,-9.75128
31.0637,-0.15128,-0.34985,-9.77627
31.07374,-0.15039,-0.36766,-9.78465
31.08378,-0.13617,-0.35165,-9.74694
31.09381,-0.13273,-0.34432,-9.75218
31.10385,-0.16266,-0.35464,-9.77687
31.11389,-0.16296,-0.36287,-9.76789
31.12393,-0.15622,-0.3515,-9.75652
31.13396,-0.14904,-0.3521,-9.77148
31.144,-0.15951,-0.35434,-9.77328
31.15404,-0.16655,-0.3494,-9.73871
31.16408,-0.1646,-0.35793,-9.75682
31.17411,-0.16325,-0.35629,-9.78465
31.18415,-0.15278,-0.35943,-9.78166
31.19419,-0.15069,-0.353,-9.76326
31.20423,-0.1631,-0.36152,-9.75622
31.21426,-0.15517,-0.36541,-9.76296
31.2243,-0.15398,-0.36078,-9.75024
31.23434,-0.14724,-0.35943,-9.764
31.24438,-0.15966,-0.35868,-9.76056
31.25442,-0.16221,-0.36497,-9.75293
31.26445,-0.15443,-0.35434,-9.73991
31.27449,-0.15024,-0.3491,-9.77074
31.28453,-0.16071,-0.34701,-9.764
31.29456,-0.16325,-0.36467,-9.74949
31.3046,-0.15772,-0.36586,-9.76655
31.31464,-0.1661,-0.34686,-9.77208
31.32468,-0.14994,-0.35554,-9.72719
31.33472,-0.16325,-0.37454,-9.74111
31.34475,-0.1459,-0.36422,-9.80306
31.35479,-0.1245,-0.34791,-9.79588
31.36483,-0.12839,-0.3286,-9.75323
31.37487,-0.16715,-0.33459,-9.74635
31.3849,-0.17777,-0.34701,-9.75248
31.39494,-0.15517,-0.34611,-9.76176
31.40498,-0.14605,-0.36182,-9.76251
31.41501,-0.16819,-0.37424,-9.77972
31.42505,-0.164,-0.36048,-9.72914
31.43509,-0.13692,-0.33519,-9.74545
31.44575,-0.13093,-0.33848,-9.79618
31.45579,-0.13078,-0.35898,-9.75652
31.46583,-0.15742,-0.35674,-9.71672
31.47587,-0.16729,-0.38906,-9.76789
31.4859,-0.14934,-0.37365,-9.78675
31.49594,-0.13871,-0.35404,-9.76206
31.50598,-0.17552,-0.3696,-9.75098
31.51602,-0.17403,-0.34791,-9.767
31.52606,-0.15113,-0.32965,-9.77508
31.53609,-0.14066,-0.33354,-9.75652
31.54613,-0.16774,-0.3503,-9.74724
31.55617,-0.15757,-0.36467,-9.75652
31.56621,-0.13961,-0.36033,-9.75188
31.57624,-0.15113,-0.34806,-9.77373
31.58628,-0.15413,-0.36467,-9.76101
31.59632,-0.1667,-0.34776,-9.73153
31.60636,-0.14305,-0.32875,-9.76685
31.61639,-0.12809,-0.32681,-9.78899
31.62643,-0.14694,-0.33893,-9.7643
31.63647,-0.145,-0.35718,-9.73722
31.64651,-0.14141,-0.36152,-9.74739
31.65654,-0.14051,-0.35883,-9.76715
31.66658,-0.13946,-0.36123,-9.78256
31.67662,-0.14994,-0.36556,-9.76894
31.68666,-0.1652,-0.36527,-9.75996
31.69669,-0.16655,-0.34641,-9.76131
31.70673,-0.17358,-0.37185,-9.76894
31.71677,-0.17448,-0.40058,-9.77328
31.72681,-0.16026,-0.38382,-9.76804
31.73684,-0.16445,-0.38397,-9.75323
31.74688,-0.14814,-0.36766,-9.79468
31.75692,-0.145,-0.34626,-9.77867
31.76696,-0.13812,-0.35793,-9.73677
31.777,-0.15667,-0.36856,-9.77747
31.78703,-0.15203,-0.3726,-9.80051
31.79707,-0.14395,-0.36856,-9.77253
31.80711,-0.17687,-0.3735,-9.74859
31.81715,-0.18076,-0.35554,-9.75637
31.82718,-0.16266,-0.35195,-9.74231
31.83722,-0.11971,-0.31813,-9.77074
31.84726,-0.11732,-0.31678,-9.78316
31.8573,-0.1426,-0.32845,-9.78091
31.86733,-0.15278,-0.31035,-9.75607
31.87737,-0.13767,-0.29733,-9.7429
31.88741,-0.13572,-0.30511,-9.75143
31.89745,-0.15981,-0.31184,-9.75458
31.90748,-0.1854,-0.32052,-9.74335
31.91752,-0.17627,-0.3096,-9.74874
31.92756,-0.17074,-0.3494,-9.75353
31.9376,-0.18405,-0.36781,-9.76445
31.94763,-0.164,-0.38427,-9.77508
31.95767,-0.14889,-0.36152,-9.78121
31.96771,-0.15248,-0.37529,-9.7649
31.97775,-0.164,-0.40238,-9.76505
31.98778,-0.15787,-0.42482,-9.77418
31.99782,-0.13587,-0.45086,-9.77493
32.00786,-0.12929,-0.46163,-9.78106
32.0179,-0.14455,-0.43694,-9.77328
32.02793,-0.1465,-0.42482,-9.77433
32.03797,-0.14754,-0.40327,-9.77223
32.04801,-0.13572,-0.37903,-9.78675
32.05805,-0.13782,-0.35075,-9.78615
32.06808,-0.15458,-0.33923,-9.76969
32.07812,-0.16894,-0.31394,-9.75009
32.08816,-0.17178,-0.31633,-9.75607
32.0982,-0.16834,-0.28401,-9.76789
32.10824,-0.17029,-0.29523,-9.74635
32.11827,-0.19064,-0.2885,-9.75009
32.12894,-0.19064,-0.2885,-9.75009
32.13898,-0.1842,-0.29823,-9.77074
32.14901,-0.1649,-0.32037,-9.77867
32.15905,-0.14186,-0.3319,-9.76041
32.16909,-0.15547,-0.36706,-9.75877
32.17913,-0.13722,-0.37903,-9.73931
32.18916,-0.14784,-0.38442,-9.78061
32.1992,-0.14515,-0.40028,-9.79812
32.20924,-0.14245,-0.39235,-9.75248
32.21928,-0.14874,-0.39355,-9.77074
32.22931,-0.14919,-0.38547,-9.79124
32.23935,-0.16625,-0.37335,-9.76999
32.24939,-0.15906,-0.35225,-9.73423
32.25943,-0.15323,-0.35718,-9.75547
32.26946,-0.15547,-0.35988,-9.78076
32.2795,-0.14216,-0.32696,-9.73976
32.28954,-0.15473,-0.32217,-9.73363
32.29958,-0.16385,-0.33564,-9.7667
32.30961,-0.14979,-0.32726,-9.75697
32.31965,-0.13542,-0.33953,-9.73991
32.32969,-0.14216,-0.35404,-9.77373
32.33973,-0.15487,-0.36407,-9.77642
32.34976,-0.1453,-0.37469,-9.76311
32.3598,-0.15218,-0.36811,-9.77597
32.36984,-0.15652,-0.38831,-9.77568
32.37988,-0.17478,-0.38502,-9.75368
32.38991,-0.17238,-0.36676,-9.76146
32.39995,-0.16729,-0.35958,-9.78061
32.40999,-0.17582,-0.34686,-9.77149
32.42003,-0.1637,-0.34761,-9.75532
32.43007,-0.15877,-0.35554,-9.75877
32.4401,-0.13228,-0.34192,-9.76789
32.45014,-0.13916,-0.34746,-9.75158
32.46018,-0.1426,-0.3521,-9.75757
32.47022,-0.13647,-0.35614,-9.77358
32.48025,-0.13707,-0.3515,-9.75458
32.49029,-0.1465,-0.36452,-9.76146
32.50033,-0.17238,-0.37589,-9.76176
32.51037,-0.1664,-0.36556,-9.767
32.5204,-0.14635,-0.35344,-9.75353
32.53044,-0.17582,-0.37589,-9.7863
32.54048,-0.17867,-0.38053,-9.75996
32.55052,-0.14635,-0.36003,-9.74635
32.56055,-0.14201,-0.35255,-9.77582
32.57059,-0.1456,-0.36048,-9.7673
32.58063,-0.12869,-0.35823,-9.75158
32.59067,-0.13722,-0.3524,-9.75084
32.6007,-0.12719,-0.33818,-9.76505
32.61074,-0.14515,-0.3322,-9.76595
32.62078,-0.1634,-0.33085,-9.74006
32.63082,-0.16176,-0.34192,-9.75532
32.64085,-0.15727,-0.35689,-9.77508
32.65089,-0.16206,-0.35195,-9.75532
32.66093,-0.16924,-0.36302,-9.76176
32.67097,-0.1646,-0.3726,-9.77029
32.681,-0.16909,-0.35883,-9.76759
32.69104,-0.1652,-0.37604,-9.77163
32.70108,-0.15877,-0.37245,-9.78166
32.71112,-0.13692,-0.34881,-9.74919
32.72116,-0.14979,-0.35329,-9.74201
32.73119,-0.15652,-0.35943,-9.77223
32.74123,-0.14919,-0.34387,-9.77702
32.75127,-0.14275,-0.34072,-9.74769
32.76131,-0.14949,-0.34192,-9.74036
32.77134,-0.15757,-0.3491,-9.78376
32.78138,-0.15862,-0.34327,-9.76445
32.79142,-0.14739,-0.33683,-9.73782
32.80146,-0.16819,-0.372,-9.77972
32.81149,-0.16415,-0.38158,-9.77657
32.82153,-0.16131,-0.35449,-9.74635
32.83157,-0.14904,-0.36886,-9.7655
32.84161,-0.15712,-0.3705,-9.78376
32.85164,-0.15218,-0.36886,-9.76221
32.86168,-0.14635,-0.36272,-9.74081
32.87172,-0.14545,-0.34521,-9.75158
32.88176,-0.15622,-0.34641,-9.76909
32.89179,-0.15128,-0.3509,-9.74455
32.90183,-0.14994,-0.33983,-9.75936
32.91187,-0.15562,-0.34028,-9.76909
32.92191,-0.15218,-0.34626,-9.73976
32.93195,-0.14201,-0.33878,-9.75936
32.94198,-0.15562,-0.35045,-9.79333
32.95202,-0.14784,-0.36392,-9.76535
32.96206,-0.1438,-0.36527,-9.75084
32.97209,-0.1646,-0.35733,-9.77059
32.98213,-0.15966,-0.35539,-9.76984
32.99217,-0.15757,-0.34731,-9.77074
33.00221,-0.16759,-0.36093,-9.76849
33.01225,-0.16924,-0.36227,-9.77253
33.02228,-0.14395,-0.34581,-9.74769
33.03232,-0.1456,-0.35389,-9.75877
33.04236,-0.13692,-0.35374,-9.76864
33.0524,-0.13901,-0.35868,-9.75218
33.06243,-0.14949,-0.34671,-9.75084
33.07247,-0.14096,-0.35943,-9.76864
33.08251,-0.14934,-0.36287,-9.77403
33.09255,-0.14425,-0.35988,-9.75832
33.10258,-0.16206,-0.36227,-9.75009
33.11262,-0.15906,-0.35584,-9.77119
33.12266,-0.16131,-0.35778,-9.76954
33.1327,-0.15069,-0.34895,-9.76715
33.14273,-0.15263,-0.36287,-9.77777
33.15277,-0.15487,-0.36078,-9.7652
33.16281,-0.15682,-0.34237,-9.74665
33.17285,-0.15652,-0.35344,-9.76894
33.18288,-0.15697,-0.35344,-9.767
33.19292,-0.14395,-0.35075,-9.7441
33.20296,-0.14455,-0.35958,-9.75069
33.213,-0.15054,-0.35389,-9.77403
33.22303,-0.15592,-0.33863,-9.76595
33.23307,-0.1435,-0.34581,-9.75667
33.24311,-0.14365,-0.35419,-9.78495
33.25315,-0.16759,-0.34686,-9.75877
33.26319,-0.15996,-0.35464,-9.73183
33.27322,-0.15832,-0.3696,-9.78046
33.28326,-0.15577,-0.36721,-9.77358
33.2933,-0.15143,-0.36272,-9.75727
33.30334,-0.16161,-0.35479,-9.76086
33.31337,-0.15293,-0.35838,-9.76969
33.32341,-0.14994,-0.34791,-9.74829
33.33345,-0.145,-0.35045,-9.74545
33.34349,-0.15757,-0.36721,-9.77253
33.35352,-0.15188,-0.34955,-9.76804
33.36356,-0.13841,-0.35165,-9.7218
33.3736,-0.15024,-0.35793,-9.75353
33.38364,-0.16894,-0.36137,-9.77538
33.39367,-0.14231,-0.35599,-9.74859
33.40371,-0.14904,-0.36093,-9.76939
33.41375,-0.16505,-0.35494,-9.76939
33.42379,-0.14605,-0.36063,-9.75577
33.43382,-0.14769,-0.36916,-9.75966
33.44386,-0.1438,-0.35823,-9.79647
33.4539,-0.1453,-0.35674,-9.77448
33.46394,-0.15697,-0.34925,-9.7462
33.47397,-0.16071,-0.36482,-9.76236
33.48401,-0.15413,-0.3527,-9.78016
33.49405,-0.14829,-0.34192,-9.76326
33.50409,-0.14664,-0.35614,-9.75547
33.51412,-0.16131,-0.35464,-9.77388
33.52416,-0.16266,-0.35539,-9.77298
33.5342,-0.14799,-0.34207,-9.73812
33.54424,-0.15577,-0.35539,-9.75622
33.55428,-0.15877,-0.36317,-9.7872
33.56431,-0.15039,-0.35973,-9.75009
33.57435,-0.145,-0.34432,-9.76116
33.58439,-0.16071,-0.36362,-9.77388
33.59443,-0.16191,-0.34955,-9.7435
33.60446,-0.16221,-0.34895,-9.74964
33.6145,-0.14739,-0.35434,-9.77972
33.62454,-0.13976,-0.35958,-9.76625
33.63458,-0.15577,-0.35689,-9.74275
33.64461,-0.1432,-0.35,-9.764
33.65465,-0.1432,-0.34447,-9.78899
33.66469,-0.15458,-0.34566,-9.76311
33.67473,-0.16086,-0.35778,-9.76026
33.68476,-0.14964,-0.36362,-9.76131
33.6948,-0.1456,-0.35225,-9.76266
33.70484,-0.14859,-0.3494,-9.75488
33.71488,-0.1643,-0.36571,-9.77119
33.72491,-0.16161,-0.36796,-9.75248
33.73495,-0.14919,-0.36736,-9.75323
33.74499,-0.15338,-0.35195,-9.77508
33.75503,-0.16999,-0.34372,-9.77253
33.76506,-0.14904,-0.36841,-9.74261
33.7751,-0.15413,-0.3497,-9.75892
33.78514,-0.15218,-0.35943,-9.78286
33.79518,-0.1435,-0.35329,-9.76894
33.80522,-0.14949,-0.3732,-9.76415
33.81525,-0.13467,-0.36601,-9.77568
33.82529,-0.14724,-0.35165,-9.76011
33.83533,-0.14754,-0.33414,-9.7658
33.84537,-0.15951,-0.3497,-9.76415
33.8554,-0.16744,-0.36751,-9.75817
33.86544,-0.16071,-0.35524,-9.76011
33.87548,-0.1655,-0.35105,-9.77912
33.88552,-0.14934,-0.35644,-9.77597
33.89555,-0.15697,-0.35913,-9.74979
33.90559,-0.1465,-0.34895,-9.75428
33.91563,-0.15218,-0.36167,-9.77657
33.92567,-0.15263,-0.35539,-9.75966
33.9357,-0.14844,-0.34925,-9.74246
33.94574,-0.14904,-0.35599,-9.77687
33.95578,-0.14171,-0.35479,-9.78944
33.96582,-0.14365,-0.34746,-9.74545
33.97585,-0.15921,-0.34477,-9.75188
33.98589,-0.16864,-0.36212,-9.76056
33.99593,-0.15757,-0.353,-9.77912
34.00597,-0.15368,-0.34357,-9.76939
34.016,-0.15413,-0.35778,-9.76191
34.02604,-0.17208,-0.3497,-9.75338
34.03608,-0.15712,-0.35539,-9.73183
34.04612,-0.15113,-0.35359,-9.75921
34.05616,-0.16086,-0.36407,-9.77762
34.06619,-0.16041,-0.36751,-9.76475
34.07623,-0.15428,-0.34447,-9.73871
34.08627,-0.16625,-0.34596,-9.75862
34.09631,-0.15637,-0.34177,-9.76595
34.10634,-0.16041,-0.35778,-9.74739
34.11638,-0.17567,-0.353,-9.75742
34.12642,-0.14635,-0.35,-9.77508
34.13646,-0.14694,-0.35404,-9.76221
34.14649,-0.16984,-0.35285,-9.76655
34.15653,-0.16131,-0.35973,-9.75278
34.16657,-0.14021,-0.34491,-9.74784
34.17661,-0.15308,-0.35045,-9.74889
