t,ax,ay,az
0.0,0.40208,-4.54434,-8.34843
0.01004,0.66888,-4.53118,-8.29516
0.02007,0.51685,-4.56918,-8.24608
0.03011,0.00209,-4.8502,-8.45512
0.04014,-0.62159,-5.34461,-8.89296
0.05018,-1.01529,-5.42601,-9.03916
0.06022,-1.12094,-5.06314,-8.86663
0.07025,-1.08173,-4.6446,-8.8964
0.08029,-0.66679,-4.25749,-9.53685
0.09033,-0.52224,-4.15334,-9.0227
0.10036,-0.28057,-4.50993,-8.96464
0.1104,0.11432,-4.93221,-9.1472
0.12043,0.2068,-5.18584,-9.11009
0.13047,0.40163,-5.09396,-8.96389
0.14051,0.42108,-4.92727,-8.91361
0.15054,0.53047,-4.57457,-8.88683
0.16058,0.76599,-4.27081,-8.70143
0.17061,0.8465,-4.35191,-8.62212
0.18065,0.7859,-4.49003,-8.57498
0.19069,0.63162,-4.6048,-8.55044
0.20072,0.33653,-4.72526,-8.58531
0.21076,0.09741,-4.85918,-8.63274
0.22079,0.04354,-4.88776,-8.72312
0.23083,0.22072,-4.77987,-8.85525
0.24087,0.5158,-4.63009,-8.90015
0.2509,1.13485,-4.41685,-8.73255
0.26094,1.69928,-4.31241,-8.29815
0.27097,2.13668,-4.31181,-7.84475
0.28101,2.60205,-4.36373,-7.41888
0.29105,2.88052,-4.34563,-7.17812
0.30108,2.81977,-4.48389,-7.24411
0.31112,2.26147,-4.67273,-7.50238
0.32116,1.89381,-4.8707,-7.90565
0.33119,1.57179,-4.96363,-8.18144
0.34123,1.70707,-4.84302,-8.27271
0.35126,2.04974,-4.87534,-8.27047
0.3613,2.35814,-4.92023,-7.96686
0.37134,2.63242,-5.02917,-7.29079
0.38137,3.07879,-5.3271,-7.0008
0.39141,3.25671,-5.6792,-7.41409
0.40144,3.25462,-6.19844,-7.94725
0.41148,2.92916,-6.47736,-8.25835
0.42152,2.59906,-6.47392,-8.02641
0.43155,2.18097,-6.26712,-7.65531
0.44159,1.89636,-6.07529,-7.57391
0.45162,1.93197,-5.88614,-7.65097
0.46166,2.17064,-5.6786,-7.8256
0.4717,2.33629,-5.4483,-8.05649
0.48173,2.43341,-5.52627,-7.95743
0.49177,2.49536,-5.741,-8.01609
0.5018,2.52274,-5.95423,-8.1147
0.51184,2.79822,-6.26488,-8.10228
0.52188,2.99949,-6.41422,-7.91688
0.53191,3.04198,-6.50086,-7.63451
0.54195,3.0761,-6.5429,-7.18874
0.55198,3.08613,-6.50744,-6.71289
0.56202,2.97435,-6.39371,-6.52974
0.57206,2.73238,-6.28119,-6.64346
0.58209,2.31265,-5.87223,-7.18051
0.59213,2.13024,-5.51355,-7.58079
0.60217,1.97387,-5.54886,-7.26221
0.6122,1.94738,-6.13305,-6.68805
0.62224,1.66008,-7.19458,-6.44175
0.63227,1.16583,-7.75407,-6.63987
0.64231,1.03684,-7.54832,-7.1229
0.65235,0.84291,-7.12425,-7.84101
0.66238,0.6183,-6.79325,-8.714
0.67242,0.40312,-6.55084,-9.49974
0.68245,0.32337,-6.37307,-9.62559
0.69249,0.42677,-6.43711,-9.21214
0.70253,0.72978,-6.66306,-8.72013
0.71256,1.0331,-6.81764,-8.30474
0.7226,1.12318,-6.91834,-8.17186
0.73263,0.96022,-7.07008,-8.31746
0.74267,0.62953,-7.19443,-8.48505
0.75271,0.28865,-7.09611,-8.66566
0.76274,-0.02858,-6.89171,-8.68676
0.77278,-0.12525,-6.5643,-8.32778
0.78281,-0.03846,-6.32339,-7.38925
0.79285,0.0018,-6.91924,-6.56236
0.80289,0.0018,-6.91924,-6.56236
0.81292,-0.30421,-7.01621,-7.15447
0.82296,-0.67756,-7.00693,-7.7816
0.83299,-1.0512,-6.87959,-8.29411
0.84303,-1.27372,-6.73983,-8.72971
0.85307,-1.46031,-6.4615,-9.08659
0.8631,-1.57868,-6.03114,-9.18266
0.87314,-1.55638,-5.17806,-9.09078
0.88318,-1.10328,-4.92667,-8.34275
0.89321,-1.10328,-4.92667,-8.34275
0.90325,-0.98237,-5.97668,-7.86884
0.91328,-0.82525,-7.17527,-7.55475
0.92332,-0.69716,-8.01055,-7.4316
0.93336,-0.74205,-8.00636,-7.73552
0.94339,-0.97489,-6.94857,-8.90419
0.95343,-1.19156,-5.69685,-9.60225
0.96346,-0.86266,-5.50202,-8.83146
0.9735,-0.0811,-5.90335,-7.47889
0.98354,0.81238,-6.36618,-6.70391
0.99357,1.18453,-6.4226,-7.1033
1.00361,0.65152,-5.49873,-8.10692
1.01365,-0.00165,-4.10441,-8.77116
1.02368,-0.47196,-3.50795,-8.9597
1.03372,-0.08918,-5.11431,-8.98215
1.04375,1.46899,-6.97581,-9.82805
1.05379,2.29035,-7.59635,-6.15385
1.06382,1.73804,-7.84789,-3.15047
1.07386,-0.10355,-5.32156,-4.04919
1.0839,0.61202,-4.98039,-5.5556
1.09393,1.09101,-4.66914,-6.26383
1.10397,2.34063,-4.25495,-3.22604
1.114,3.66029,-3.91527,-0.71871
1.12404,3.30939,-2.44343,-3.24878
1.13408,3.24968,-1.45867,-4.19988
1.14411,2.98123,-0.67142,-7.04808
1.15415,2.19593,-0.63791,-7.62703
1.16419,1.17495,-1.69495,-7.37205
1.17422,0.16984,-3.2012,-7.58513
1.18426,-1.32519,-3.51768,-8.13161
1.19429,-3.02657,-2.71413,-8.42385
1.20433,-3.96375,-2.17962,-9.01731
1.21437,-4.02809,-1.98764,-9.28651
1.2244,-3.56766,-1.50296,-8.50361
1.23444,-3.47429,-0.88825,-7.55206
1.24447,-3.9443,-0.64599,-5.86609
1.25451,-4.21724,-1.58616,-1.0512
1.26455,-5.31603,-1.9622,0.15248
1.27458,-6.57702,-0.98372,-3.75097
1.28462,-6.72187,-0.50069,-6.35586
1.29465,-6.36514,-1.18244,-7.33284
1.30469,-5.69521,-2.58993,-8.1756
1.31473,-5.14694,-2.9543,-7.49729
1.32476,-3.56841,-1.9001,-7.7002
1.3348,-2.39615,-1.20997,-9.31629
1.34483,-2.45346,-1.94933,-11.34777
1.35487,-1.41782,-4.0658,-15.08227
1.36491,0.15592,-4.48374,-15.98743
1.37494,2.05647,-3.29607,-14.679
1.38498,3.18474,-2.89309,-12.91941
1.39502,2.98707,-3.23502,-11.39475
1.40505,2.35395,-3.71565,-10.03859
1.41509,1.8995,-4.38004,-9.42852
1.42512,1.37667,-4.60345,-10.00522
1.43516,0.97743,-4.61841,-10.68996
1.4452,1.05061,-4.85125,-10.81296
1.45523,1.1989,-4.44947,-10.57938
1.46527,1.261,-4.01627,-10.40116
1.4753,1.19291,-3.5316,-10.69116
1.48534,1.16149,-2.75243,-11.64659
1.49538,0.94227,-2.53322,-12.47319
1.50541,0.6801,-3.16962,-11.71707
1.51545,0.40851,-3.21422,-10.20708
1.52548,0.49321,-2.82231,-8.90808
1.53552,1.12468,-2.68001,-8.94324
1.54556,1.53169,-2.64739,-10.07525
1.55559,1.35572,-2.56853,-10.87132
1.56563,0.78171,-2.34258,-11.37799
1.57566,0.07721,-2.25399,-11.21534
1.5857,-0.37454,-2.18845,-10.24225
1.59574,0.04295,-2.00574,-9.07058
1.60577,0.84815,-1.31457,-8.57274
1.61581,1.36619,-0.69537,-8.55194
1.62585,1.55907,-0.52224,-8.73285
1.63588,1.22359,-0.38442,-9.25613
1.64592,0.36377,-0.33743,-9.42388
1.65595,-0.33908,-0.75103,-9.14405
1.66599,-0.16894,-1.00856,-8.80602
1.67603,0.65826,-0.54244,-10.1366
1.68606,1.18633,-0.29494,-11.81149
1.6961,0.83184,-0.31035,-12.82454
1.70613,-0.03023,-0.4139,-12.77217
1.71617,-0.83423,-0.54827,-12.02742
1.72621,-1.27865,-0.60289,-11.28357
1.73624,-1.27701,-0.86131,-10.61454
1.74628,-1.22763,-0.11088,-11.77902
1.75631,-1.34764,-0.08634,-10.82239
1.76635,-1.29362,-0.33788,-9.59955
1.77639,-1.34659,0.07811,-10.02811
1.78642,-1.2182,-0.26231,-9.78166
1.79646,-0.99659,-0.38861,-9.24162
1.80649,-0.51969,0.01915,-8.82248
1.81653,-0.22191,0.36422,-8.17859
1.82657,0.13572,0.88211,-8.938
1.8366,0.44532,0.88376,-9.31913
1.84664,0.40597,0.70315,-9.3721
1.85668,0.07213,0.5996,-9.56274
1.86671,-0.3717,0.19872,-9.61511
1.87675,-0.46986,-0.15637,-9.54793
1.88678,-0.06674,-0.19019,-9.62514
1.89682,0.37694,-0.10325,-10.344
1.90686,0.52134,0.50308,-11.40328
1.91689,0.49246,0.63297,-11.66874
1.92693,0.09053,0.08365,-10.49887
1.93696,-0.00868,-0.27937,-9.44438
1.947,0.03472,-0.1459,-9.08061
1.95704,0.33698,-0.03023,-9.09438
1.96707,0.61142,-0.00643,-9.27768
1.97711,0.43215,0.04654,-9.8053
1.98714,0.1667,-0.15697,-10.24718
1.99718,-0.06225,-0.36766,-11.18825
2.00722,-0.13123,-0.41988,-9.75652
2.01725,0.15697,-0.11926,-9.35265
2.02729,0.33384,0.34087,-9.76849
2.03733,0.12794,0.26321,-9.86441
2.04736,-0.03157,0.05836,-10.12448
2.0574,-0.27234,-0.27967,-10.00133
2.06743,-0.5354,-0.55935,-9.86261
2.07747,-0.44592,-0.57177,-9.85349
2.08751,-0.23658,-0.34312,-9.87982
2.09754,-0.13856,-0.23343,-9.85977
2.10758,0.07138,-0.21997,-9.84735
2.11761,0.05192,-0.00958,-9.80291
2.12765,-0.13273,0.02274,-9.79243
2.13769,-0.2481,-0.13393,-9.80635
2.14772,-0.30661,-0.1866,-9.77388
2.15776,-0.41046,-0.24077,-9.65477
2.1678,-0.39444,-0.23523,-9.61377
2.17783,-0.21997,-0.1631,-9.6434
2.18787,-0.15188,-0.08769,-9.66584
2.1979,-0.17268,0.00539,-9.70998
2.20794,-0.26576,-0.40253,-10.74159
2.21797,-0.11597,-0.40327,-9.58459
2.22801,0.02005,-0.24107,-9.82251
2.23805,0.33878,-0.36018,-9.75892
2.24808,0.36332,-0.37514,-9.83523
2.25812,0.01691,-0.42826,-9.94521
2.26816,-0.41105,-0.75238,-9.61796
2.27819,-0.80849,-0.51311,-9.9313
2.28823,-1.14473,-0.34985,-11.1884
2.29826,-1.28718,-0.54199,-10.00268
2.3083,-0.50892,-0.74355,-6.44265
2.31834,0.40447,-0.41046,-8.19864
2.32837,-0.72155,-0.23059,-13.67942
2.33841,-0.37903,-0.3699,-8.95671
2.34845,0.3726,-0.45879,-7.48562
2.35848,-0.55396,-0.27279,-12.36695
2.36852,-0.11926,-0.38801,-8.71055
2.37855,-0.11522,-0.35255,-10.09216
2.38859,-0.21174,-0.35838,-9.61975
2.39863,-0.18854,-0.33848,-10.0564
2.40866,-0.15921,-0.37529,-9.79977
2.4187,-0.17418,-0.35913,-9.64878
2.42873,-0.17957,-0.35748,-9.74231
2.43877,-0.167,-0.35599,-9.79408
2.44881,-0.18196,-0.35105,-9.79318
2.45884,-0.15802,-0.36048,-9.77074
2.46888,-0.16939,-0.36901,-9.74724
2.47891,-0.16774,-0.36063,-9.76894
2.48895,-0.15532,-0.3705,-9.7869
2.49899,-0.17448,-0.34521,-9.77328
2.50902,-0.17508,-0.353,-9.76595
2.51906,-0.17104,-0.34207,-9.75503
2.52909,-0.17882,-0.34402,-9.7875
2.53913,-0.15413,-0.35793,-9.76894
2.54917,-0.17433,-0.35539,-9.74515
2.5592,-0.17986,-0.36452,-9.7444
2.56924,-0.15832,-0.35195,-9.8261
2.57928,-0.15787,-0.34731,-9.77253
2.58931,-0.19588,-0.36841,-9.74709
2.59935,-0.18001,-0.36197,-9.75293
2.60938,-0.17178,-0.35464,-9.76744
2.61942,-0.14964,-0.36063,-9.77687
2.62946,-0.17882,-0.36302,-9.76939
2.63949,-0.18555,-0.35165,-9.75413
2.64953,-0.17029,-0.35614,-9.78031
2.65956,-0.17822,-0.35494,-9.76116
2.6696,-0.18106,-0.3524,-9.76415
2.67964,-0.15652,-0.36287,-9.76595
2.68967,-0.164,-0.35569,-9.75383
2.69971,-0.16281,-0.36975,-9.76715
2.70974,-0.16984,-0.34252,-9.76685
2.71978,-0.16939,-0.35763,-9.74844
2.72982,-0.15293,-0.36362,-9.77642
2.73985,-0.17238,-0.35674,-9.7851
2.74989,-0.167,-0.36781,-9.77104
2.75993,-0.16445,-0.35464,-9.75921
2.76996,-0.17208,-0.35823,-9.75143
2.78,-0.16236,-0.36197,-9.7655
2.79003,-0.16565,-0.36362,-9.786
2.80007,-0.167,-0.36601,-9.76819
2.8101,-0.16355,-0.36437,-9.7444
2.82014,-0.17448,-0.35778,-9.76685
2.83018,-0.1634,-0.35195,-9.78884
2.84021,-0.15054,-0.37125,-9.75068
2.85025,-0.16086,-0.36212,-9.75637
2.86029,-0.15428,-0.36541,-9.75607
2.87032,-0.15517,-0.34671,-9.76894
2.88036,-0.16685,-0.34985,-9.79498
2.89039,-0.17463,-0.35314,-9.78645
2.90043,-0.19752,-0.3717,-9.74694
2.91047,-0.16355,-0.36063,-9.75592
2.9205,-0.15308,-0.36601,-9.78286
2.93054,-0.15263,-0.37155,-9.7634
2.94058,-0.16939,-0.36706,-9.73168
2.95061,-0.17313,-0.35629,-9.767
2.96065,-0.1655,-0.33818,-9.79902
2.97068,-0.15069,-0.34955,-9.77837
2.98072,-0.17358,-0.35404,-9.73467
2.99075,-0.17717,-0.36646,-9.764
3.00079,-0.15742,-0.3521,-9.76999
3.01083,-0.15667,-0.34895,-9.75592
3.02086,-0.17837,-0.35704,-9.76355
3.0309,-0.19273,-0.36212,-9.76954
3.04094,-0.16744,-0.35255,-9.75892
3.05097,-0.15413,-0.36901,-9.77478
3.06101,-0.1643,-0.37035,-9.77448
3.07104,-0.17687,-0.36946,-9.76146
3.08108,-0.15428,-0.34821,-9.77298
3.09112,-0.15458,-0.33878,-9.76056
3.10115,-0.17552,-0.34462,-9.77463
3.11119,-0.17283,-0.3512,-9.76041
3.12123,-0.16744,-0.35928,-9.76445
3.13126,-0.16475,-0.37275,-9.77792
3.1413,-0.17523,-0.36137,-9.77702
3.15133,-0.16969,-0.3717,-9.7227
3.16137,-0.17463,-0.36063,-9.74216
3.17141,-0.16445,-0.36392,-9.7872
3.18144,-0.1664,-0.34521,-9.79408
3.19148,-0.17119,-0.35195,-9.75143
3.20151,-0.17313,-0.34462,-9.74739
3.21155,-0.1664,-0.34671,-9.77208
3.22159,-0.15981,-0.36616,-9.76131
3.23162,-0.16804,-0.36886,-9.76879
3.24166,-0.18316,-0.3515,-9.77343
3.25169,-0.17687,-0.3503,-9.77687
3.26173,-0.16999,-0.3491,-9.77074
3.27177,-0.18031,-0.3518,-9.75877
3.2818,-0.17283,-0.36512,-9.77268
3.29184,-0.17373,-0.35868,-9.76191
3.30188,-0.16236,-0.36018,-9.78136
3.31191,-0.15592,-0.36886,-9.79303
3.32195,-0.16715,-0.37888,-9.76475
3.33198,-0.18375,-0.36152,-9.73931
3.34202,-0.17044,-0.36003,-9.767
3.35205,-0.15383,-0.35195,-9.77597
3.36209,-0.16774,-0.36946,-9.74021
3.37213,-0.18465,-0.36437,-9.75188
3.38216,-0.15966,-0.36272,-9.79588
3.3922,-0.16685,-0.35868,-9.79109
3.40224,-0.18361,-0.35195,-9.75143
3.41227,-0.18151,-0.34895,-9.75936
3.42231,-0.17119,-0.35853,-9.7866
3.43234,-0.1432,-0.36886,-9.76161
3.44238,-0.16011,-0.37245,-9.74889
3.45242,-0.18361,-0.36048,-9.77897
3.46245,-0.17612,-0.35314,-9.77747
3.47249,-0.15009,-0.33549,-9.77508
3.48253,-0.18465,-0.3509,-9.77313
3.49256,-0.18645,-0.35404,-9.75577
3.5026,-0.17014,-0.36048,-9.7646
3.51263,-0.1438,-0.36556,-9.78076
3.52267,-0.16894,-0.36048,-9.77867
3.53271,-0.18121,-0.35374,-9.75966
3.54274,-0.1634,-0.34985,-9.76116
3.55278,-0.16011,-0.34881,-9.77283
3.56281,-0.17717,-0.3518,-9.77732
3.57285,-0.16625,-0.35644,-9.77508
3.58289,-0.15877,-0.35988,-9.78181
3.59292,-0.16685,-0.35584,-9.76041
3.60296,-0.16984,-0.35374,-9.74919
3.61299,-0.16969,-0.35584,-9.78136
3.62303,-0.16804,-0.35359,-9.78241
3.63307,-0.17104,-0.36078,-9.76789
3.6431,-0.16789,-0.35928,-9.76834
3.65314,-0.16939,-0.35344,-9.75892
3.66318,-0.16819,-0.35898,-9.75817
3.67321,-0.15847,-0.35733,-9.77433
3.68325,-0.17223,-0.35704,-9.77747
3.69328,-0.16026,-0.36736,-9.75488
3.70332,-0.1652,-0.34387,-9.76056
3.71336,-0.16744,-0.35868,-9.77029
3.72339,-0.17014,-0.36422,-9.74335
3.73343,-0.15802,-0.36497,-9.7435
3.74346,-0.16011,-0.35808,-9.76715
3.7535,-0.16879,-0.36048,-9.7857
3.76354,-0.17717,-0.35419,-9.74694
3.77357,-0.17582,-0.34925,-9.76685
3.78361,-0.16475,-0.36317,-9.77298
3.79365,-0.15742,-0.36527,-9.75607
3.80368,-0.17223,-0.35464,-9.764
3.81372,-0.17313,-0.36946,-9.78675
3.82375,-0.16236,-0.35509,-9.78211
3.83379,-0.17134,-0.35195,-9.74171
3.84382,-0.17178,-0.3515,-9.76221
3.85386,-0.16984,-0.36407,-9.77732
3.8639,-0.17508,-0.36093,-9.76236
3.87393,-0.16744,-0.35569,-9.76056
3.88397,-0.17957,-0.3732,-9.78031
3.89401,-0.16385,-0.3503,-9.77807
3.90404,-0.15862,-0.35329,-9.76445
3.91408,-0.17074,-0.34686,-9.75966
3.92411,-0.17313,-0.35973,-9.76116
3.93415,-0.17268,-0.3714,-9.75562
3.94419,-0.15996,-0.36646,-9.77074
3.95422,-0.16744,-0.36601,-9.79378
3.96426,-0.17627,-0.36063,-9.77044
3.97429,-0.17552,-0.35973,-9.74964
3.98433,-0.17837,-0.36691,-9.76056
3.99437,-0.15069,-0.36482,-9.76296
4.0044,-0.17298,-0.36377,-9.76969
4.01444,-0.16715,-0.35225,-9.7872
4.02448,-0.164,-0.35135,-9.7863
4.03451,-0.17298,-0.36167,-9.7429
4.04455,-0.17418,-0.34477,-9.75233
4.05458,-0.15278,-0.34402,-9.79318
4.06462,-0.15817,-0.36631,-9.76565
4.07466,-0.18091,-0.35853,-9.76026
4.08469,-0.16655,-0.35838,-9.77283
4.09473,-0.16161,-0.34806,-9.76834
4.10476,-0.16041,-0.36766,-9.74904
4.1148,-0.17478,-0.36302,-9.77792
4.12484,-0.17328,-0.35374,-9.76849
4.13487,-0.16176,-0.35419,-9.75862
4.14491,-0.18241,-0.35359,-9.77972
4.15494,-0.16729,-0.35868,-9.79034
4.16498,-0.18031,-0.35344,-9.75503
4.17502,-0.17508,-0.35464,-9.745
4.18505,-0.16056,-0.35105,-9.78136
4.19509,-0.18405,-0.36721,-9.77717
4.20513,-0.17448,-0.35255,-9.75128
4.21516,-0.17597,-0.35404,-9.78465
4.2252,-0.1649,-0.353,-9.78316
4.23523,-0.16715,-0.36556,-9.73886
4.24527,-0.17403,-0.3512,-9.76041
4.25531,-0.17822,-0.35285,-9.79677
4.26534,-0.15428,-0.35704,-9.75323
4.27538,-0.17298,-0.35285,-9.75069
4.28541,-0.17208,-0.35674,-9.79677
4.29545,-0.14949,-0.34506,-9.78241
4.30549,-0.16296,-0.35883,-9.72659
4.31552,-0.17837,-0.36886,-9.75203
4.32556,-0.16086,-0.3714,-9.79064
4.33559,-0.14739,-0.36691,-9.7667
4.34563,-0.17014,-0.36377,-9.75278
4.35567,-0.18405,-0.35509,-9.7875
4.3657,-0.16744,-0.3497,-9.77717
4.37574,-0.15787,-0.35045,-9.7441
4.38578,-0.1634,-0.3729,-9.78735
4.39581,-0.18061,-0.35165,-9.79468
4.40585,-0.167,-0.35898,-9.75532
4.41588,-0.15443,-0.35674,-9.75742
4.42592,-0.17178,-0.35285,-9.79618
4.43596,-0.1854,-0.34716,-9.76071
4.44599,-0.15667,-0.35195,-9.74754
4.45603,-0.1652,-0.36916,-9.77762
4.46606,-0.16819,-0.37215,-9.78016
4.4761,-0.17403,-0.35808,-9.74889
4.48614,-0.16879,-0.3515,-9.77178
4.49617,-0.15368,-0.36272,-9.80126
4.50621,-0.17478,-0.34013,-9.76161
4.51625,-0.17388,-0.35404,-9.745
4.52628,-0.17044,-0.35733,-9.77747
4.53632,-0.17238,-0.35015,-9.76984
4.54635,-0.17373,-0.36063,-9.77074
4.55639,-0.17538,-0.35419,-9.78121
4.56643,-0.16161,-0.36018,-9.76909
4.57646,-0.16595,-0.35793,-9.76789
4.5865,-0.17627,-0.35494,-9.77762
4.59653,-0.16236,-0.35943,-9.77852
4.60657,-0.15772,-0.36093,-9.76385
4.61661,-0.16191,-0.36601,-9.7637
4.62664,-0.17268,-0.35075,-9.79199
4.63668,-0.16475,-0.35255,-9.7667
4.64671,-0.1652,-0.35853,-9.75742
4.65675,-0.17089,-0.36676,-9.76819
4.66679,-0.17089,-0.36407,-9.76475
4.67682,-0.17642,-0.36182,-9.76685
4.68686,-0.16415,-0.36721,-9.77238
4.6969,-0.16565,-0.36586,-9.76176
4.70693,-0.17298,-0.34327,-9.75817
4.71697,-0.17283,-0.36003,-9.7634
4.727,-0.17777,-0.35374,-9.77148
4.73704,-0.16804,-0.36407,-9.75503
4.74708,-0.15667,-0.36512,-9.76056
4.75711,-0.16864,-0.35015,-9.76879
4.76715,-0.16296,-0.35359,-9.77777
4.77718,-0.17702,-0.36407,-9.75622
4.78722,-0.16625,-0.35479,-9.7872
4.79726,-0.1652,-0.35329,-9.79662
4.80729,-0.17448,-0.35823,-9.78091
4.81733,-0.16685,-0.35823,-9.74425
4.82737,-0.1655,-0.36676,-9.77268
4.8374,-0.15398,-0.35718,-9.79632
4.84744,-0.16924,-0.35913,-9.75742
4.85747,-0.17208,-0.35674,-9.75128
4.86751,-0.18316,-0.35599,-9.76236
4.87817,-0.16325,-0.35359,-9.7872
4.88821,-0.16325,-0.35359,-9.7872
4.89825,-0.16924,-0.35614,-9.76625
4.90828,-0.1658,-0.36901,-9.76176
4.91832,-0.16311,-0.35195,-9.75966
4.92835,-0.17567,-0.34761,-9.76999
4.93839,-0.17253,-0.36512,-9.78391
4.94843,-0.15443,-0.35195,-9.76326
4.95846,-0.16281,-0.35718,-9.76535
4.9685,-0.16071,-0.36033,-9.79737
4.97853,-0.16999,-0.36167,-9.79184
4.98857,-0.17582,-0.3732,-9.74051
4.99861,-0.17957,-0.36362,-9.75098
5.00864,-0.17971,-0.35045,-9.78929
5.01868,-0.14949,-0.36347,-9.79094
5.02872,-0.15398,-0.3518,-9.75323
5.03875,-0.18869,-0.36093,-9.75383
5.04879,-0.17134,-0.34866,-9.77343
5.05882,-0.15024,-0.34925,-9.7646
5.06886,-0.16251,-0.36152,-9.74485
5.0789,-0.17852,-0.36452,-9.74994
5.08893,-0.17178,-0.36182,-9.77582
5.09897,-0.14979,-0.3491,-9.77717
5.109,-0.16879,-0.35614,-9.7631
5.11904,-0.1845,-0.372,-9.76789
5.12908,-0.18271,-0.36766,-9.77163
5.13911,-0.14694,-0.353,-9.76744
5.14915,-0.14545,-0.37215,-9.78525
5.15918,-0.17134,-0.35868,-9.76954
5.16922,-0.18121,-0.3711,-9.73946
5.17926,-0.17672,-0.34551,-9.75757
5.18929,-0.14814,-0.34626,-9.79558
5.19933,-0.15487,-0.3515,-9.75921
5.20936,-0.19019,-0.35569,-9.73632
5.2194,-0.17612,-0.34731,-9.77508
5.22944,-0.15727,-0.34701,-9.78331
5.23947,-0.17163,-0.35763,-9.75996
5.24951,-0.17762,-0.36631,-9.7456
5.25955,-0.16744,-0.36616,-9.78525
5.26958,-0.15607,-0.35344,-9.80456
5.27962,-0.16011,-0.35898,-9.75981
5.28965,-0.19064,-0.35329,-9.7462
5.29969,-0.18346,-0.353,-9.76535
5.30973,-0.16041,-0.35509,-9.75368
5.31976,-0.15697,-0.34851,-9.77253
5.3298,-0.17762,-0.3527,-9.80051
5.33983,-0.1652,-0.36093,-9.76026
5.34987,-0.16266,-0.35928,-9.74305
5.35991,-0.16909,-0.35479,-9.78585
5.36994,-0.18346,-0.35,-9.78929
5.37998,-0.16759,-0.35913,-9.73452
5.39002,-0.16744,-0.36676,-9.75068
5.40005,-0.16819,-0.36018,-9.79169
5.41009,-0.15083,-0.36751,-9.78031
5.42012,-0.16445,-0.35389,-9.73991
5.43016,-0.1661,-0.35614,-9.78809
5.4402,-0.15308,-0.35329,-9.80081
5.45023,-0.1432,-0.34806,-9.73138
5.46027,-0.18735,-0.34791,-9.79333
5.47093,-0.18735,-0.34791,-9.79333
5.48097,-0.15682,-0.3503,-9.7652
5.491,-0.15098,-0.35135,-9.75517
5.50104,-0.18241,-0.35509,-9.76969
5.51108,-0.17373,-0.35135,-9.7869
5.52111,-0.15413,-0.35868,-9.73931
5.53115,-0.16864,-0.36691,-9.76655
5.54118,-0.17597,-0.36691,-9.79408
5.55122,-0.17134,-0.34581,-9.7447
5.56126,-0.15473,-0.35314,-9.74859
5.57129,-0.15921,-0.353,-9.80785
5.58133,-0.17283,-0.3497,-9.77672
5.59137,-0.15458,-0.35374,-9.75054
5.6014,-0.17328,-0.35344,-9.77971
5.61144,-0.17552,-0.34536,-9.7878
5.62147,-0.16819,-0.36033,-9.75308
5.63151,-0.1664,-0.35524,-9.73662
5.64155,-0.167,-0.36856,-9.76909
5.65158,-0.16819,-0.36048,-9.77493
5.66162,-0.16894,-0.34671,-9.77882
5.67165,-0.15892,-0.35704,-9.77133
5.68169,-0.17627,-0.35943,-9.78839
5.69173,-0.16325,-0.36452,-9.75188
5.70176,-0.16774,-0.35195,-9.73303
5.7118,-0.17089,-0.35793,-9.79513
5.72183,-0.17717,-0.34357,-9.79767
5.73187,-0.17418,-0.34447,-9.75338
5.74191,-0.18346,-0.34806,-9.74724
5.75194,-0.18929,-0.36302,-9.77104
5.76198,-0.15652,-0.36661,-9.76804
5.77202,-0.145,-0.35973,-9.75966
5.78205,-0.17523,-0.35763,-9.77089
5.79209,-0.18211,-0.34821,-9.76131
5.80212,-0.17223,-0.35659,-9.75667
5.81216,-0.16744,-0.34866,-9.76954
5.8222,-0.18001,-0.35329,-9.78839
5.83223,-0.15966,-0.36093,-9.77942
5.84227,-0.14844,-0.35599,-9.75577
5.8523,-0.17957,-0.35748,-9.7649
5.86234,-0.18121,-0.36706,-9.74066
5.87238,-0.16625,-0.35988,-9.75862
5.88241,-0.15892,-0.35823,-9.79243
5.89245,-0.15428,-0.34686,-9.77059
5.90249,-0.17538,-0.36152,-9.74814
5.91252,-0.19662,-0.35509,-9.76415
5.92256,-0.16834,-0.3491,-9.7869
5.93259,-0.16879,-0.36452,-9.7634
5.94263,-0.17074,-0.35704,-9.76804
5.95267,-0.15652,-0.36003,-9.77597
5.9627,-0.17672,-0.35524,-9.76236
5.97274,-0.16685,-0.36392,-9.76954
5.98277,-0.16894,-0.35195,-9.76385
5.99281,-0.17717,-0.34477,-9.7646
6.00285,-0.17702,-0.35644,-9.75039
6.01288,-0.15712,-0.35629,-9.76999
6.02292,-0.16146,-0.35659,-9.7661
6.03296,-0.17582,-0.3515,-9.75562
6.04299,-0.17343,-0.36452,-9.77193
6.05303,-0.16191,-0.3515,-9.79782
6.06306,-0.16146,-0.36467,-9.78046
6.0731,-0.16685,-0.36362,-9.73587
6.08314,-0.18121,-0.35718,-9.76011
6.09317,-0.16475,-0.36003,-9.77747
6.10321,-0.15637,-0.35539,-9.75263
6.11325,-0.16325,-0.34955,-9.75039
6.12328,-0.17208,-0.36182,-9.77627
6.13332,-0.15398,-0.35359,-9.75682
6.14335,-0.15024,-0.35494,-9.76475
6.15339,-0.15832,-0.36287,-9.76804
6.16343,-0.18046,-0.35404,-9.76236
6.17346,-0.16954,-0.34925,-9.74575
6.1835,-0.15652,-0.34491,-9.78346
6.19354,-0.17178,-0.35195,-9.76415
6.20357,-0.17957,-0.35659,-9.75458
6.21361,-0.16221,-0.35584,-9.77852
6.22364,-0.15487,-0.36437,-9.77433
6.23368,-0.17059,-0.3503,-9.75458
6.24372,-0.17642,-0.36227,-9.75592
6.25375,-0.16221,-0.34761,-9.79752
6.26379,-0.15263,-0.34761,-9.77029
6.27382,-0.17029,-0.35913,-9.74934
6.28386,-0.18226,-0.3711,-9.75503
6.2939,-0.15727,-0.36751,-9.78869
6.30393,-0.17134,-0.35165,-9.75802
6.31397,-0.18959,-0.35718,-9.77104
6.32401,-0.18001,-0.35419,-9.77642
6.33404,-0.16161,-0.35285,-9.75278
6.34408,-0.16266,-0.37679,-9.77029
6.35411,-0.18316,-0.35554,-9.78031
6.36415,-0.1661,-0.35255,-9.77388
6.37419,-0.15517,-0.3527,-9.76909
6.38422,-0.17433,-0.35479,-9.76685
6.39426,-0.17942,-0.35509,-9.75054
6.40429,-0.17193,-0.35659,-9.75862
6.41433,-0.15697,-0.35329,-9.76146
6.42437,-0.17283,-0.3518,-9.77597
6.4344,-0.17178,-0.35689,-9.7875
6.44444,-0.17463,-0.35389,-9.7854
6.45448,-0.15951,-0.35674,-9.77642
6.46451,-0.17448,-0.34731,-9.74261
6.47455,-0.18765,-0.36212,-9.74006
6.48458,-0.17163,-0.36317,-9.7842
6.49462,-0.15024,-0.36272,-9.78735
6.50466,-0.17642,-0.3497,-9.74904
6.51469,-0.1845,-0.34881,-9.76131
6.52473,-0.17463,-0.33983,-9.79198
6.53476,-0.15502,-0.36197,-9.76789
6.5448,-0.16565,-0.35015,-9.75637
6.55484,-0.18241,-0.36182,-9.764
6.56487,-0.16565,-0.35898,-9.76251
6.57491,-0.164,-0.36347,-9.76325
6.58495,-0.17508,-0.36646,-9.77238
6.59498,-0.1872,-0.35629,-9.77343
6.60502,-0.16445,-0.36437,-9.75532
6.61505,-0.17029,-0.35554,-9.764
6.62509,-0.1667,-0.34806,-9.77029
6.63513,-0.16969,-0.35075,-9.74425
6.64516,-0.15862,-0.36137,-9.74754
6.6552,-0.15772,-0.36063,-9.77612
6.66523,-0.16969,-0.36048,-9.75682
6.67527,-0.17687,-0.35733,-9.74709
6.68531,-0.16774,-0.34611,-9.76296
6.69534,-0.16655,-0.35479,-9.79782
6.70538,-0.16266,-0.35389,-9.79139
6.71542,-0.17433,-0.35689,-9.76355
6.72545,-0.17074,-0.36242,-9.76131
6.73549,-0.17627,-0.35629,-9.76655
6.74552,-0.17253,-0.35823,-9.75697
6.75556,-0.17388,-0.35883,-9.75547
6.7656,-0.15637,-0.35853,-9.76819
6.77563,-0.17792,-0.36691,-9.78465
6.78567,-0.16789,-0.36257,-9.76011
6.7957,-0.16999,-0.35718,-9.76984
6.80574,-0.17792,-0.36482,-9.75592
6.81578,-0.17478,-0.3524,-9.77597
6.82581,-0.167,-0.35883,-9.7878
6.83585,-0.17837,-0.36482,-9.764
6.84589,-0.16939,-0.35838,-9.7459
6.85592,-0.16311,-0.36197,-9.77044
6.86596,-0.16685,-0.35988,-9.77448
6.87599,-0.16729,-0.36003,-9.76715
6.88603,-0.16924,-0.35075,-9.76101
6.89607,-0.16924,-0.35539,-9.76251
6.9061,-0.1664,-0.3509,-9.75039
6.91614,-0.17523,-0.36287,-9.77448
6.92618,-0.18031,-0.36901,-9.78151
6.93621,-0.1658,-0.36527,-9.75113
6.94625,-0.16924,-0.36242,-9.7652
6.95628,-0.16041,-0.36212,-9.77612
6.96632,-0.17358,-0.35389,-9.76266
6.97636,-0.17822,-0.35644,-9.75996
6.98639,-0.1661,-0.35913,-9.79258
6.99643,-0.17328,-0.35718,-9.76565
7.00646,-0.16086,-0.36063,-9.74694
7.0165,-0.17148,-0.36272,-9.75622
7.02654,-0.1631,-0.35584,-9.77852
7.03657,-0.16415,-0.35374,-9.77597
7.04661,-0.18031,-0.36347,-9.76146
7.05665,-0.17178,-0.35689,-9.77463
7.06668,-0.14575,-0.35449,-9.77119
7.07672,-0.16744,-0.3696,-9.76311
7.08675,-0.17238,-0.3518,-9.78391
7.09679,-0.16879,-0.34521,-9.78106
7.10683,-0.17448,-0.34536,-9.75428
7.11686,-0.17178,-0.36048,-9.76804
7.1269,-0.15263,-0.34207,-9.7839
7.13694,-0.16729,-0.34776,-9.75353
7.14697,-0.16146,-0.36317,-9.7429
7.15701,-0.1661,-0.35464,-9.76894
7.16704,-0.15308,-0.34491,-9.76864
7.17708,-0.17089,-0.35464,-9.75697
7.18712,-0.18091,-0.36751,-9.76834
7.19715,-0.17597,-0.34656,-9.79109
7.20719,-0.1652,-0.35838,-9.75757
7.21722,-0.17148,-0.35733,-9.74829
7.22726,-0.17298,-0.3521,-9.77672
7.2373,-0.16206,-0.3506,-9.77358
7.24733,-0.1646,-0.36003,-9.76221
7.25737,-0.16834,-0.36287,-9.75667
7.26741,-0.18121,-0.35359,-9.78001
7.27744,-0.17059,-0.35868,-9.76101
7.28748,-0.16894,-0.35165,-9.74201
7.29751,-0.17612,-0.34207,-9.77582
7.30755,-0.16804,-0.35569,-9.77163
7.31759,-0.15637,-0.36527,-9.76625
7.32762,-0.16565,-0.36332,-9.76535
7.33766,-0.17238,-0.35285,-9.76969
7.3477,-0.17463,-0.36392,-9.76445
7.35773,-0.15787,-0.35689,-9.76296
7.36777,-0.1667,-0.35524,-9.75772
7.3778,-0.17971,-0.36721,-9.75892
7.38784,-0.17418,-0.35659,-9.76355
7.39788,-0.16939,-0.35434,-9.77448
7.40791,-0.17268,-0.35285,-9.77313
7.41795,-0.17268,-0.36182,-9.7667
7.42798,-0.16535,-0.36227,-9.79348
7.43802,-0.15592,-0.3494,-9.75263
7.44806,-0.1667,-0.36078,-9.74919
7.45809,-0.16774,-0.36152,-9.7661
7.46813,-0.14605,-0.34731,-9.73782
7.47817,-0.1664,-0.35823,-9.71507
7.4882,-0.17567,-0.35748,-9.84346
7.49824,-0.14709,-0.33818,-9.88401
7.50827,-0.15413,-0.3494,-9.73467
7.51831,-0.21937,-0.36616,-9.61182
7.52835,-0.22431,-0.3711,-9.75592
7.53838,-0.08978,-0.36886,-9.8496
7.54842,-0.09278,-0.35778,-9.83822
7.55846,-0.18735,-0.35928,-9.75398
7.56849,-0.25438,-0.33743,-9.74994
7.57853,-0.17074,-0.34177,-9.73512
7.58856,-0.10968,-0.35599,-9.79273
7.5986,-0.16774,-0.37589,-9.79558
7.60864,-0.21548,-0.35883,-9.73677
7.61867,-0.14694,-0.3518,-9.76909
7.62871,-0.12764,-0.34267,-9.77927
7.63874,-0.18046,-0.33698,-9.76236
7.64878,-0.20889,-0.35898,-9.7016
7.65882,-0.16819,-0.36975,-9.76296
7.66885,-0.11941,-0.36467,-9.81159
7.67889,-0.16161,-0.36736,-9.77553
7.68893,-0.20859,-0.36257,-9.72659
7.69896,-0.19498,-0.34327,-9.78301
7.709,-0.15832,-0.33624,-9.79662
7.71903,-0.16924,-0.37275,-9.75158
7.72907,-0.19692,-0.38068,-9.77687
7.73911,-0.15817,-0.36347,-9.77852
7.74914,-0.13303,-0.35344,-9.78106
7.75918,-0.16355,-0.34506,-9.75413
7.76922,-0.20036,-0.35644,-9.7667
7.77925,-0.16655,-0.34207,-9.75532
7.78929,-0.1432,-0.36242,-9.75951
7.79932,-0.17837,-0.35778,-9.77388
7.80936,-0.1845,-0.37275,-9.78615
7.8194,-0.16026,-0.35419,-9.7634
7.82943,-0.15473,-0.34866,-9.7441
7.83947,-0.18031,-0.35898,-9.76715
7.8495,-0.1854,-0.35584,-9.75622
7.85954,-0.15323,-0.36556,-9.75128
7.86958,-0.14799,-0.36182,-9.75547
7.87961,-0.1857,-0.34746,-9.7863
7.88965,-0.19498,-0.34282,-9.76864
7.89969,-0.16969,-0.34477,-9.74515
7.90972,-0.18121,-0.35255,-9.7869
7.91976,-0.15981,-0.36586,-9.77343
7.92979,-0.16176,-0.36302,-9.74096
7.93983,-0.15413,-0.36018,-9.75054
7.94987,-0.167,-0.34357,-9.77493
7.9599,-0.17014,-0.33414,-9.77553
7.96994,-0.17208,-0.3524,-9.76266
7.97998,-0.18301,-0.37065,-9.76011
7.99001,-0.1637,-0.36437,-9.75966
8.00005,-0.1839,-0.36033,-9.76311
8.01008,-0.18361,-0.35958,-9.75847
8.02012,-0.16131,-0.36033,-9.76026
8.03016,-0.16909,-0.34791,-9.77568
8.04019,-0.15487,-0.35434,-9.76759
8.05023,-0.1631,-0.35704,-9.74754
8.06026,-0.16041,-0.36601,-9.75607
8.0703,-0.17253,-0.36841,-9.77762
8.08034,-0.16236,-0.34297,-9.77837
8.09037,-0.17298,-0.34836,-9.76056
8.10041,-0.19558,-0.35718,-9.72974
8.11045,-0.17882,-0.36362,-9.61437
8.12048,-0.15981,-0.36586,-9.85768
8.13052,-0.12764,-0.3521,-9.8894
8.14055,-0.14006,-0.33668,-9.95883
8.15059,-0.15443,-0.36123,-9.56603
8.16063,-0.30541,-0.35255,-9.58085
8.17066,-0.15562,-0.38008,-9.81443
8.1807,-0.03816,-0.372,-9.94551
8.19074,-0.1242,-0.35509,-9.77687
8.20077,-0.2677,-0.3931,-9.64399
8.21081,-0.26845,-0.32636,-9.68335
8.22084,-0.09098,-0.32426,-9.76565
8.23088,-0.07721,-0.34761,-9.86785
8.24092,-0.21054,-0.37843,-9.74395
8.25095,-0.22565,-0.37065,-9.70909
8.26099,-0.13437,-0.33773,-9.76894
8.27103,-0.13108,-0.32606,-9.81159
8.28106,-0.18555,-0.37095,-9.78465
8.2911,-0.21593,-0.38173,-9.66659
8.30113,-0.16685,-0.37589,-9.81428
8.31117,-0.09472,-0.37873,-9.83927
8.32121,-0.1848,-0.35793,-9.77223
8.33124,-0.22281,-0.3527,-9.66779
8.34128,-0.19423,-0.35883,-9.8083
8.35131,-0.12899,-0.34087,-9.78959
8.36135,-0.12779,-0.37005,-9.77134
8.37139,-0.20665,-0.35943,-9.69891
8.38142,-0.18405,-0.34477,-9.77597
8.39146,-0.12465,-0.35015,-9.76969
8.4015,-0.17059,-0.34851,-9.78615
8.41153,-0.21144,-0.34925,-9.78435
8.42157,-0.1854,-0.36033,-9.75278
8.4316,-0.15128,-0.36197,-9.74754
8.44164,-0.15607,-0.38352,-9.78316
8.45168,-0.17627,-0.36556,-9.79692
8.46171,-0.17747,-0.35599,-9.73348
8.47175,-0.15832,-0.34536,-9.76595
8.48179,-0.16385,-0.34836,-9.78735
8.49182,-0.17163,-0.36063,-9.76086
8.50186,-0.16296,-0.37215,-9.73213
8.51189,-0.17373,-0.35748,-9.7655
8.52193,-0.16685,-0.34581,-9.80695
8.53197,-0.17358,-0.34821,-9.79094
8.542,-0.18241,-0.35928,-9.73707
8.55204,-0.18346,-0.36347,-9.76326
8.56207,-0.17089,-0.37634,-9.77672
8.57211,-0.14784,-0.36512,-9.78465
8.58215,-0.17029,-0.36556,-9.77134
8.59218,-0.19513,-0.36123,-9.75532
8.60222,-0.16999,-0.34566,-9.75667
8.61226,-0.16041,-0.35778,-9.7661
8.62229,-0.16071,-0.35464,-9.75488
8.63233,-0.17493,-0.36003,-9.66719
8.64236,-0.2083,-0.3518,-9.7438
8.6524,-0.13692,-0.34985,-9.85064
8.66244,-0.14171,-0.33803,-9.98277
8.67247,-0.13288,-0.35509,-9.75787
8.68251,-0.26052,-0.38771,-9.57546
8.69255,-0.2288,-0.38741,-9.65611
8.70258,-0.09532,-0.372,-9.94073
8.71262,-0.06105,-0.36317,-9.85693
8.72265,-0.23284,-0.37065,-9.67407
8.73269,-0.29329,-0.33968,-9.6612
8.74273,-0.1634,-0.32277,-9.78001
8.75276,-0.06165,-0.33145,-9.83194
8.7628,-0.17014,-0.38562,-9.76251
8.77284,-0.24346,-0.39504,-9.73916
8.78287,-0.15622,-0.35419,-9.75817
8.79291,-0.09427,-0.32771,-9.81817
8.80294,-0.17687,-0.353,-9.80231
8.81298,-0.2466,-0.38397,-9.67422
8.82302,-0.17627,-0.38367,-9.72375
8.83305,-0.09427,-0.36167,-9.86172
8.84309,-0.13467,-0.36332,-9.84705
8.85312,-0.2047,-0.34327,-9.67048
8.86316,-0.23568,-0.33594,-9.71657
8.87382,-0.12944,-0.35629,-9.81174
8.88386,-0.19588,-0.3711,-9.68006
8.8939,-0.20889,-0.36975,-9.74724
8.90393,-0.13422,-0.34686,-9.82461
8.91397,-0.11283,-0.34641,-9.80695
8.92401,-0.19273,-0.35015,-9.73078
8.93404,-0.23029,-0.36347,-9.73288
8.94408,-0.15009,-0.37634,-9.77597
8.95411,-0.11537,-0.36826,-9.81249
8.96415,-0.17747,-0.35015,-9.78346
8.97419,-0.22311,-0.35958,-9.73093
8.98422,-0.16595,-0.33519,-9.73497
8.99426,-0.13782,-0.33983,-9.78675
9.0043,-0.15263,-0.36063,-9.81144
9.01433,-0.20381,-0.38861,-9.71567
9.02437,-0.1854,-0.3735,-9.72091
9.0344,-0.14724,-0.33384,-9.81144
9.04444,-0.14844,-0.33459,-9.81144
9.05448,-0.1863,-0.35689,-9.7435
9.06451,-0.18316,-0.3729,-9.72974
9.07455,-0.16236,-0.36362,-9.78705
9.08459,-0.14784,-0.34821,-9.80111
9.09462,-0.16415,-0.36975,-9.75368
9.10466,-0.20545,-0.34432,-9.73931
9.11469,-0.16161,-0.34701,-9.77702
9.12473,-0.13677,-0.34222,-9.80022
9.13477,-0.15996,-0.36856,-9.75682
9.1448,-0.19393,-0.36407,-9.75712
9.15484,-0.17298,-0.36901,-9.76385
9.16488,-0.16311,-0.34072,-9.78271
9.17491,-0.1658,-0.34177,-9.79767
9.18495,-0.1866,-0.35045,-9.75278
9.19498,-0.18675,-0.35868,-9.72555
9.20502,-0.15039,-0.36197,-9.76834
9.21506,-0.15293,-0.35913,-9.78271
9.22509,-0.17463,-0.36152,-9.74335
9.23513,-0.1851,-0.3509,-9.70505
9.24516,-0.16715,-0.34327,-9.78241
9.2552,-0.15338,-0.34177,-9.86471
9.26524,-0.13542,-0.35704,-9.85214
9.27527,-0.18151,-0.38756,-9.66315
9.28531,-0.22939,-0.36736,-9.62364
9.29535,-0.15652,-0.35748,-9.83852
9.30538,-0.07991,-0.35733,-9.87698
9.31542,-0.16116,-0.36182,-9.75517
9.32545,-0.23164,-0.35524,-9.72166
9.33549,-0.20665,-0.34342,-9.73048
9.34553,-0.1224,-0.33175,-9.7658
9.35556,-0.12989,-0.37739,-9.81443
9.3656,-0.19872,-0.38322,-9.75248
9.37564,-0.20201,-0.36841,-9.71881
9.38567,-0.14784,-0.33758,-9.7857
9.39571,-0.1634,-0.34566,-9.81338
9.40574,-0.18974,-0.35255,-9.72944
9.41578,-0.19528,-0.35614,-9.71627
9.42582,-0.14395,-0.34462,-9.8086
9.43585,-0.12824,-0.35733,-9.86007
9.44589,-0.16939,-0.37275,-9.71956
9.45593,-0.21069,-0.36063,-9.7043
9.46596,-0.18585,-0.35539,-9.79438
9.476,-0.13812,-0.36018,-9.8047
9.48603,-0.15622,-0.35733,-9.76071
9.49607,-0.20246,-0.36542,-9.75742
9.50611,-0.17223,-0.35374,-9.76445
9.51614,-0.11477,-0.35913,-9.78495
9.52618,-0.15712,-0.36332,-9.77044
9.53621,-0.20515,-0.37125,-9.72196
9.54625,-0.14724,-0.34596,-9.79513
9.55691,-0.14724,-0.34596,-9.79513
9.56695,-0.15098,-0.35539,-9.81443
9.57699,-0.19483,-0.36212,-9.74904
9.58702,-0.18121,-0.36422,-9.7037
9.59706,-0.16056,-0.372,-9.7637
9.60709,-0.14455,-0.35389,-9.80725
9.61713,-0.16535,-0.36392,-9.76161
9.62717,-0.19288,-0.35539,-9.71791
9.6372,-0.19423,-0.34222,-9.77208
9.64724,-0.14964,-0.34925,-9.80411
9.65728,-0.15877,-0.37035,-9.75098
9.66731,-0.19258,-0.37065,-9.72555
9.67735,-0.17313,-0.36916,-9.77163
9.68738,-0.14949,-0.35479,-9.79363
9.69742,-0.15742,-0.35928,-9.7661
9.70746,-0.19887,-0.35599,-9.74769
9.71749,-0.17223,-0.34641,-9.75173
9.72753,-0.14904,-0.33908,-9.76251
9.73757,-0.15862,-0.36467,-9.77104
9.7476,-0.17807,-0.36886,-9.75951
9.75764,-0.16744,-0.35359,-9.75069
9.76767,-0.16894,-0.33399,-9.78196
9.77771,-0.15772,-0.35494,-9.80994
9.78775,-0.16206,-0.35135,-9.75907
9.79778,-0.18136,-0.36452,-9.71253
9.80782,-0.15622,-0.36766,-9.76909
9.81786,-0.13961,-0.34881,-9.81308
9.82789,-0.16849,-0.35718,-9.75921
9.83793,-0.18794,-0.35195,-9.72375
9.84796,-0.18151,-0.34985,-9.7866
9.858,-0.16565,-0.35704,-9.79318
9.86804,-0.15039,-0.35973,-9.75203
9.87807,-0.17029,-0.36362,-9.75218
9.88811,-0.17897,-0.34761,-9.77822
9.89814,-0.14769,-0.34596,-9.74036
9.90818,-0.15996,-0.35599,-9.72674
9.91822,-0.16116,-0.35778,-9.78016
9.92825,-0.17672,-0.35629,-9.85588
9.93829,-0.11313,-0.34462,-9.83284
9.94833,-0.1655,-0.36272,-9.62589
9.95836,-0.26037,-0.36212,-9.66479
9.9684,-0.1438,-0.35464,-9.89164
9.97843,-0.06749,-0.34866,-9.86636
9.98847,-0.15637,-0.36841,-9.66764
9.99851,-0.26875,-0.37634,-9.68874
10.00854,-0.19513,-0.32007,-9.80216
10.01858,-0.05312,-0.33175,-9.80291
10.02861,-0.14425,-0.36452,-9.74919
10.03865,-0.28252,-0.37888,-9.71687
10.04869,-0.18151,-0.35524,-9.81338
10.05872,-0.06853,-0.32501,-9.83867
10.06876,-0.16715,-0.33803,-9.76879
10.0788,-0.25633,-0.38023,-9.70011
10.08883,-0.1875,-0.36033,-9.70684
10.09887,-0.07527,-0.33923,-9.83643
10.10891,-0.11687,-0.36033,-9.83089
10.11894,-0.26022,-0.36272,-9.69263
10.12898,-0.2285,-0.36063,-9.67647
10.13901,-0.1251,-0.34716,-9.84107
10.14905,-0.13153,-0.35584,-9.82835
10.15909,-0.21009,-0.36512,-9.70684
10.16912,-0.20964,-0.35599,-9.71208
10.17916,-0.13183,-0.35479,-9.82924
10.1892,-0.1049,-0.35389,-9.80201
10.19923,-0.19019,-0.36212,-9.70624
10.20927,-0.21368,-0.36287,-9.71732
10.2193,-0.14754,-0.35509,-9.80919
10.22934,-0.11447,-0.3512,-9.80186
10.23938,-0.20111,-0.36137,-9.75547
10.24941,-0.23493,-0.35404,-9.74216
10.25945,-0.15667,-0.34895,-9.75487
10.26949,-0.11776,-0.33863,-9.77957
10.27952,-0.17328,-0.35823,-9.77493
10.28956,-0.20785,-0.35763,-9.76999
10.29959,-0.16759,-0.35928,-9.73078
10.30963,-0.15607,-0.34821,-9.78121
10.31967,-0.16804,-0.36706,-9.80321
10.3297,-0.2062,-0.35599,-9.74395
10.33974,-0.16909,-0.35449,-9.72989
10.34977,-0.1637,-0.34626,-9.80485
10.35981,-0.1842,-0.35718,-9.79812
10.36985,-0.18016,-0.36347,-9.74485
10.37988,-0.167,-0.35973,-9.74545
10.38992,-0.16266,-0.35464,-9.81204
10.39996,-0.15667,-0.3527,-9.76116
10.40999,-0.1872,-0.36736,-9.73168
10.42003,-0.17567,-0.36167,-9.73991
10.43006,-0.15996,-0.35599,-9.82535
10.4401,-0.17148,-0.34237,-9.78196
10.45014,-0.18001,-0.35569,-9.75128
10.46017,-0.18031,-0.35704,-9.7453
10.47021,-0.17971,-0.34357,-9.74754
10.48025,-0.14156,-0.36287,-9.7667
10.49028,-0.16296,-0.36377,-9.81159
10.50032,-0.16939,-0.35763,-9.79273
10.51035,-0.17044,-0.35015,-9.74126
10.52039,-0.17717,-0.36257,-9.74066
10.53043,-0.16325,-0.36437,-9.78346
10.54046,-0.15847,-0.36272,-9.78585
10.5505,-0.15607,-0.35329,-9.74186
10.56054,-0.18301,-0.35898,-9.7643
10.57057,-0.1863,-0.3521,-9.75862
10.58061,-0.16161,-0.35674,-9.76969
10.59064,-0.15712,-0.35823,-9.75682
10.60068,-0.17089,-0.35943,-9.77044
10.61072,-0.17792,-0.36093,-9.75443
10.62075,-0.16804,-0.3699,-9.76236
10.63079,-0.17298,-0.35075,-9.79363
10.64083,-0.17493,-0.35584,-9.77014
10.65086,-0.17657,-0.35075,-9.74261
10.6609,-0.16954,-0.35554,-9.76146
10.67093,-0.16355,-0.35853,-9.78585
10.68097,-0.15832,-0.36497,-9.75413
10.69101,-0.18076,-0.36033,-9.73452
10.70104,-0.17313,-0.35344,-9.7634
10.71108,-0.16595,-0.34566,-9.79318
10.72111,-0.16445,-0.35838,-9.76086
10.73115,-0.16206,-0.36631,-9.76116
10.74119,-0.17927,-0.3735,-9.75113
10.75122,-0.15832,-0.35509,-9.77642
10.76126,-0.15622,-0.35898,-9.77508
10.7713,-0.17298,-0.36886,-9.7667
10.78133,-0.17762,-0.36886,-9.75787
10.79137,-0.15936,-0.35674,-9.77463
10.80141,-0.15413,-0.3527,-9.78121
10.81144,-0.1646,-0.35404,-9.7649
10.82148,-0.19199,-0.35075,-9.74829
10.83151,-0.16834,-0.36048,-9.77119
10.84155,-0.15996,-0.3524,-9.76311
10.85159,-0.17912,-0.36003,-9.76176
10.86162,-0.17702,-0.36871,-9.73542
10.87166,-0.15054,-0.36182,-9.74739
10.8817,-0.15892,-0.35793,-9.78989
10.89173,-0.17597,-0.35524,-9.78226
10.90177,-0.18929,-0.35,-9.75757
10.9118,-0.16834,-0.36078,-9.75577
10.92184,-0.15862,-0.35793,-9.7667
10.93188,-0.16999,-0.35988,-9.78286
10.94191,-0.16266,-0.36497,-9.78735
10.95195,-0.1664,-0.36033,-9.75158
10.96198,-0.17029,-0.35389,-9.75323
10.97202,-0.17433,-0.34821,-9.77119
10.98206,-0.15727,-0.36482,-9.77642
10.99209,-0.17852,-0.36407,-9.76565
11.00213,-0.16954,-0.3521,-9.76939
11.01217,-0.17747,-0.35419,-9.77104
11.0222,-0.18705,-0.35599,-9.76146
11.03224,-0.18046,-0.34895,-9.77358
11.04228,-0.16655,-0.35614,-9.77568
11.05231,-0.1664,-0.35614,-9.74784
11.06235,-0.1643,-0.35015,-9.76011
11.07238,-0.16475,-0.35,-9.75128
11.08242,-0.1649,-0.34806,-9.7441
11.09246,-0.17178,-0.35554,-9.79034
11.10249,-0.15233,-0.34357,-9.85977
11.11253,-0.1447,-0.36063,-9.71881
11.12257,-0.21802,-0.36497,-9.6612
11.1326,-0.20096,-0.3524,-9.83523
11.14264,-0.10609,-0.35958,-9.84945
11.15267,-0.15203,-0.3524,-9.7022
11.16271,-0.21982,-0.37095,-9.73004
11.17275,-0.19228,-0.35823,-9.81503
11.18278,-0.11402,-0.33683,-9.77882
11.19282,-0.1429,-0.35913,-9.75113
11.20285,-0.24271,-0.35135,-9.75966
11.21289,-0.19333,-0.36287,-9.75697
11.22293,-0.11103,-0.34222,-9.76221
11.23296,-0.16535,-0.34536,-9.78465
11.243,-0.21697,-0.37215,-9.76266
11.25304,-0.19228,-0.35988,-9.72076
11.26307,-0.11986,-0.35344,-9.80051
11.27311,-0.14216,-0.35853,-9.84241
11.28314,-0.21219,-0.35853,-9.71851
11.29318,-0.20485,-0.35285,-9.69233
11.30322,-0.14829,-0.36093,-9.81578
11.31325,-0.13827,-0.35015,-9.83104
11.32329,-0.17448,-0.36975,-9.71687
11.33333,-0.21413,-0.36422,-9.72749
11.34336,-0.1649,-0.34222,-9.81204
11.3534,-0.11717,-0.36422,-9.79423
11.36343,-0.18301,-0.3699,-9.74515
11.37347,-0.19857,-0.36796,-9.75233
11.38351,-0.15308,-0.35913,-9.78361
11.39354,-0.13871,-0.34162,-9.75877
11.40358,-0.17328,-0.35464,-9.78944
11.41362,-0.20635,-0.35569,-9.75996
11.42365,-0.17074,-0.34955,-9.74709
11.43369,-0.13228,-0.35943,-9.77807
11.44372,-0.16505,-0.35928,-9.79034
11.45376,-0.18046,-0.37335,-9.74365
11.4638,-0.1658,-0.36422,-9.7435
11.47383,-0.15847,-0.34581,-9.81548
11.48387,-0.15562,-0.35389,-9.80441
11.49391,-0.17867,-0.35763,-9.71866
11.50394,-0.18884,-0.3527,-9.75488
11.51398,-0.1459,-0.36003,-9.79662
11.52401,-0.16056,-0.34746,-9.78809
11.53405,-0.17747,-0.35255,-9.74066
11.54409,-0.18615,-0.34925,-9.7637
11.55412,-0.164,-0.34806,-9.78959
11.56416,-0.15862,-0.34043,-9.7634
11.5742,-0.18346,-0.36257,-9.75562
11.58423,-0.19483,-0.35793,-9.75532
11.59427,-0.16161,-0.34372,-9.77433
11.6043,-0.15862,-0.35838,-9.77478
11.61434,-0.1875,-0.35374,-9.75652
11.62438,-0.19004,-0.35644,-9.75892
11.63441,-0.16984,-0.35793,-9.76176
11.64445,-0.14365,-0.36167,-9.80111
11.65449,-0.14934,-0.35988,-9.77642
11.66452,-0.1875,-0.36512,-9.74156
11.67456,-0.17223,-0.37305,-9.76326
11.6846,-0.14964,-0.36078,-9.77089
11.69463,-0.1664,-0.36108,-9.76909
11.70467,-0.17493,-0.35165,-9.74784
11.7147,-0.18196,-0.35045,-9.76475
11.72474,-0.17268,-0.35883,-9.78076
11.73478,-0.16894,-0.36242,-9.78271
11.74481,-0.17612,-0.34746,-9.76969
11.75485,-0.15757,-0.36826,-9.76011
11.76489,-0.15951,-0.34746,-9.76041
11.77492,-0.15951,-0.34925,-9.78256
11.78496,-0.16685,-0.36556,-9.77792
11.79499,-0.17672,-0.35539,-9.75218
11.80503,-0.18106,-0.3509,-9.76116
11.81507,-0.17597,-0.35389,-9.78465
11.8251,-0.16415,-0.35329,-9.76939
11.83514,-0.16879,-0.35359,-9.74231
11.84518,-0.17612,-0.35494,-9.75772
11.85521,-0.1655,-0.35689,-9.76146
11.86525,-0.15742,-0.36332,-9.80246
11.87528,-0.15487,-0.34611,-9.75143
11.88532,-0.17313,-0.35374,-9.74051
11.89536,-0.1863,-0.36407,-9.74994
11.90539,-0.14724,-0.33025,-9.88416
11.91543,-0.12061,-0.35733,-9.7459
11.92547,-0.23149,-0.35464,-9.6434
11.9355,-0.20066,-0.34207,-9.83493
11.94554,-0.10684,-0.36586,-9.85304
11.95557,-0.15263,-0.33818,-9.7242
11.96561,-0.21608,-0.38651,-9.69322
11.97565,-0.21877,-0.35449,-9.78839
11.98568,-0.1046,-0.33145,-9.80994
11.99572,-0.11163,-0.36826,-9.76999
12.00576,-0.23897,-0.36018,-9.71672
12.01579,-0.21937,-0.3726,-9.75248
12.02583,-0.10071,-0.35554,-9.78989
12.03586,-0.13422,-0.33758,-9.79812
12.0459,-0.20022,-0.3729,-9.79109
12.05594,-0.21533,-0.37783,-9.69562
12.06597,-0.13946,-0.34058,-9.75787
12.07601,-0.11163,-0.35599,-9.83478
12.08605,-0.19468,-0.36437,-9.77433
12.09608,-0.20351,-0.35748,-9.68948
12.10612,-0.17268,-0.35434,-9.7661
12.11615,-0.13452,-0.34925,-9.80919
12.12619,-0.15862,-0.3702,-9.76939
12.13623,-0.19872,-0.36152,-9.72899
12.14626,-0.17178,-0.34581,-9.76804
12.1563,-0.14096,-0.3527,-9.80635
12.16634,-0.16834,-0.35973,-9.74889
12.17637,-0.18031,-0.36167,-9.73692
12.18641,-0.17223,-0.3699,-9.78226
12.19644,-0.16385,-0.34791,-9.77178
12.20648,-0.15802,-0.35344,-9.78391
12.21652,-0.18824,-0.35584,-9.77149
12.22655,-0.17912,-0.35913,-9.74814
12.23659,-0.15936,-0.36332,-9.74515
12.24663,-0.17957,-0.35808,-9.76415
12.25666,-0.16535,-0.36362,-9.76819
12.2667,-0.15413,-0.35868,-9.75877
12.27673,-0.16999,-0.34387,-9.76445
12.28677,-0.17283,-0.34656,-9.78525
12.29681,-0.17912,-0.3515,-9.75996
12.30684,-0.17732,-0.35509,-9.73976
12.31688,-0.15787,-0.3506,-9.77957
12.32692,-0.15682,-0.35389,-9.76146
12.33695,-0.17104,-0.35195,-9.76445
12.34699,-0.17074,-0.35509,-9.78196
12.35702,-0.17927,-0.35883,-9.78061
12.36706,-0.16385,-0.36048,-9.77523
12.3771,-0.16834,-0.35808,-9.76505
12.38713,-0.16505,-0.34072,-9.75024
12.39717,-0.15772,-0.36093,-9.77523
12.40721,-0.16834,-0.35524,-9.77972
12.41724,-0.17463,-0.35763,-9.77538
12.42728,-0.17552,-0.35075,-9.76221
12.43731,-0.17448,-0.35419,-9.74784
12.44735,-0.16056,-0.36137,-9.78929
12.45739,-0.15263,-0.35973,-9.7634
12.46742,-0.17687,-0.35494,-9.75832
12.47746,-0.1652,-0.36197,-9.80231
12.4875,-0.17657,-0.33773,-9.77059
12.49753,-0.17717,-0.3729,-9.73348
12.50757,-0.20366,-0.36063,-9.76385
12.5176,-0.16355,-0.33653,-9.86516
12.52764,-0.12644,-0.37604,-9.73183
12.53768,-0.22176,-0.35359,-9.6615
12.54771,-0.18959,-0.36123,-9.81383
12.55775,-0.13093,-0.34836,-9.8285
12.56779,-0.14305,-0.34656,-9.70744
12.57782,-0.205,-0.36841,-9.75308
12.58786,-0.2062,-0.34043,-9.80231
12.59789,-0.12435,-0.33369,-9.75921
12.60793,-0.1459,-0.36212,-9.76355
12.61797,-0.21323,-0.35569,-9.74231
12.628,-0.17762,-0.3527,-9.74754
12.63804,-0.11522,-0.34746,-9.78375
12.64808,-0.13004,-0.35195,-9.83284
12.65811,-0.19288,-0.36601,-9.76655
12.66815,-0.21114,-0.35075,-9.67826
12.67818,-0.14889,-0.34432,-9.79184
12.68822,-0.13273,-0.35808,-9.84346
12.69826,-0.18705,-0.36018,-9.73467
12.70829,-0.19348,-0.36257,-9.70879
12.71833,-0.18405,-0.35868,-9.79977
12.72837,-0.14545,-0.32591,-9.79199
12.7384,-0.16296,-0.35748,-9.75637
12.74844,-0.19872,-0.35853,-9.75009
12.75847,-0.15727,-0.35,-9.80545
12.76851,-0.13871,-0.36018,-9.76879
12.77855,-0.17253,-0.36691,-9.72824
12.78858,-0.19573,-0.36691,-9.76415
12.79862,-0.18046,-0.36347,-9.77732
12.80866,-0.14365,-0.34985,-9.77597
12.81869,-0.16071,-0.35569,-9.7851
12.82873,-0.19288,-0.36452,-9.76266
12.83876,-0.16894,-0.36078,-9.74455
12.8488,-0.14081,-0.3491,-9.77867
12.85884,-0.17867,-0.35748,-9.80007
12.86887,-0.17837,-0.36766,-9.76281
12.87954,-0.17792,-0.35389,-9.74455
12.88957,-0.16789,-0.36093,-9.77792
12.89961,-0.17059,-0.36811,-9.78241
12.90965,-0.18046,-0.36212,-9.7429
12.91968,-0.16834,-0.35629,-9.74904
12.92972,-0.15009,-0.35763,-9.76595
12.93976,-0.17612,-0.3735,-9.74545
12.94979,-0.17433,-0.36796,-9.75936
12.95983,-0.1661,-0.3518,-9.77388
12.96986,-0.17044,-0.34417,-9.7667
12.9799,-0.17612,-0.35314,-9.77732
12.98994,-0.17148,-0.35539,-9.7652
12.99997,-0.18121,-0.35868,-9.75173
13.01001,-0.15757,-0.35629,-9.7637
13.02005,-0.17074,-0.35389,-9.79543
13.03008,-0.15532,-0.36571,-9.77089
13.04012,-0.16819,-0.35314,-9.74081
13.05015,-0.1863,-0.37604,-9.75951
13.06019,-0.15069,-0.36227,-9.77403
13.07023,-0.15263,-0.36856,-9.71866
13.08026,-0.19378,-0.35344,-9.808
13.0903,-0.14635,-0.34282,-9.81174
13.10033,-0.17777,-0.36197,-9.69861
13.11037,-0.21488,-0.35449,-9.71313
13.12041,-0.15877,-0.36452,-9.83104
13.13044,-0.13393,-0.36137,-9.74919
13.14048,-0.18046,-0.35704,-9.76011
13.15052,-0.17582,-0.36152,-9.80171
13.16055,-0.17986,-0.34836,-9.7453
13.17059,-0.15473,-0.35165,-9.76176
13.18062,-0.17552,-0.34955,-9.78585
13.19066,-0.19348,-0.35733,-9.7459
13.2007,-0.14904,-0.37439,-9.76041
13.21073,-0.15083,-0.35793,-9.78301
13.22077,-0.16759,-0.3512,-9.80994
13.23081,-0.18166,-0.35614,-9.73542
13.24084,-0.17762,-0.35404,-9.72989
13.25088,-0.16729,-0.35389,-9.79932
13.26091,-0.14934,-0.36676,-9.8056
13.27095,-0.16146,-0.35898,-9.72689
13.28099,-0.1839,-0.36063,-9.76251
13.29102,-0.17552,-0.34551,-9.78675
13.30106,-0.16774,-0.34821,-9.78211
13.3111,-0.15532,-0.36736,-9.7667
13.32113,-0.18675,-0.36811,-9.76355
13.33117,-0.17837,-0.36527,-9.7658
13.3412,-0.1465,-0.34117,-9.7661
13.35124,-0.1631,-0.35733,-9.75772
13.36128,-0.17942,-0.35659,-9.75966
13.37131,-0.18375,-0.35614,-9.7655
13.38135,-0.17912,-0.3497,-9.75607
13.39139,-0.16221,-0.35015,-9.78869
13.40142,-0.16879,-0.35883,-9.77328
13.41146,-0.17253,-0.36362,-9.75697
13.42149,-0.15787,-0.35434,-9.77149
13.43153,-0.16894,-0.33773,-9.77867
13.44157,-0.16789,-0.36781,-9.74859
13.4516,-0.15233,-0.37335,-9.76236
13.46164,-0.17014,-0.35524,-9.77852
13.47168,-0.167,-0.35075,-9.77762
13.48171,-0.16146,-0.35509,-9.75024
13.49175,-0.18675,-0.36227,-9.7652
13.50178,-0.18256,-0.35434,-9.77358
13.51182,-0.15877,-0.35599,-9.78031
13.52186,-0.1637,-0.35419,-9.76894
13.53189,-0.18884,-0.35015,-9.75488
13.54193,-0.18615,-0.34776,-9.7462
13.55259,-0.15428,-0.34866,-9.77089
13.56263,-0.1444,-0.36586,-9.77942
13.57267,-0.1634,-0.35763,-9.75892
13.5827,-0.17508,-0.3518,-9.76326
13.59274,-0.17104,-0.35524,-9.77777
13.60277,-0.16385,-0.35285,-9.77687
13.61281,-0.17687,-0.353,-9.75996
13.62285,-0.17538,-0.35359,-9.76385
13.63288,-0.15353,-0.35853,-9.7854
13.64292,-0.15368,-0.35793,-9.75084
13.65296,-0.17463,-0.35928,-9.74021
13.66299,-0.19213,-0.37155,-9.76131
13.67303,-0.15847,-0.35449,-9.76879
13.68306,-0.15607,-0.35763,-9.7643
13.6931,-0.18301,-0.3515,-9.77837
13.70314,-0.16505,-0.36093,-9.77119
13.71317,-0.16445,-0.35,-9.74575
13.72321,-0.17567,-0.35868,-9.75936
13.73325,-0.17567,-0.34447,-9.78316
13.74328,-0.17882,-0.35434,-9.75877
13.75332,-0.15877,-0.35165,-9.74036
13.76335,-0.16804,-0.35793,-9.75652
13.77339,-0.18076,-0.36407,-9.76999
13.78343,-0.15547,-0.36003,-9.7661
13.79346,-0.15966,-0.35569,-9.76445
13.8035,-0.18091,-0.35075,-9.78181
13.81354,-0.17343,-0.34955,-9.75517
13.82357,-0.18136,-0.36048,-9.74485
13.83361,-0.17104,-0.36272,-9.77657
13.84364,-0.17702,-0.35599,-9.78854
13.85368,-0.17238,-0.34566,-9.77957
13.86372,-0.17523,-0.34851,-9.767
13.87375,-0.18271,-0.35135,-9.75667
13.88379,-0.17089,-0.36452,-9.75712
13.89383,-0.15712,-0.35494,-9.767
13.90386,-0.1658,-0.35554,-9.79453
13.9139,-0.16999,-0.35883,-9.78735
13.92393,-0.16565,-0.33863,-9.73722
13.93397,-0.17163,-0.3497,-9.76715
13.94401,-0.15203,-0.36227,-9.7637
13.95404,-0.15487,-0.36901,-9.75862
13.96408,-0.17059,-0.36048,-9.75443
13.97412,-0.17567,-0.35165,-9.77074
13.98415,-0.17358,-0.3497,-9.77238
13.99419,-0.16954,-0.36272,-9.75383
14.00422,-0.1643,-0.34881,-9.7661
14.01426,-0.14964,-0.36437,-9.77957
14.0243,-0.15727,-0.35494,-9.76819
14.03433,-0.16849,-0.35045,-9.7646
14.04437,-0.17837,-0.35853,-9.75817
14.05441,-0.16834,-0.35823,-9.76221
14.06444,-0.16221,-0.35195,-9.75727
14.07448,-0.16685,-0.34851,-9.77508
14.08452,-0.1655,-0.35659,-9.764
14.09455,-0.17747,-0.35584,-9.75203
14.10459,-0.17014,-0.36452,-9.74335
14.11462,-0.17298,-0.36676,-9.76281
14.12466,-0.16625,-0.35913,-9.77059
14.1347,-0.16834,-0.36182,-9.74889
14.14473,-0.15203,-0.35943,-9.79184
14.15477,-0.17059,-0.35584,-9.75488
14.16481,-0.17612,-0.34955,-9.75218
14.17484,-0.17343,-0.35464,-9.76999
14.18488,-0.17418,-0.34596,-9.75054
14.19491,-0.17148,-0.34985,-9.74036
14.20495,-0.15921,-0.36003,-9.77478
14.21499,-0.15577,-0.36347,-9.7845
14.22502,-0.15547,-0.34656,-9.77119
14.23506,-0.17104,-0.34462,-9.75233
14.2451,-0.17687,-0.35958,-9.75682
14.25513,-0.15697,-0.36212,-9.74665
14.26517,-0.15787,-0.3699,-9.77193
14.2752,-0.16715,-0.34028,-9.77553
14.28524,-0.17463,-0.35614,-9.75981
14.29528,-0.17358,-0.35614,-9.75862
14.30531,-0.17298,-0.34851,-9.76789
14.31535,-0.16056,-0.34566,-9.79079
14.32539,-0.16296,-0.36661,-9.76206
14.33542,-0.15832,-0.36018,-9.75173
14.34546,-0.16804,-0.35314,-9.7851
14.3555,-0.16071,-0.36152,-9.77089
14.36553,-0.17747,-0.35793,-9.75368
14.37557,-0.17837,-0.35838,-9.77059
14.3856,-0.18211,-0.35225,-9.7866
14.39564,-0.17343,-0.35629,-9.78211
14.40568,-0.17612,-0.35838,-9.76475
14.41571,-0.16894,-0.36661,-9.76535
14.42575,-0.16984,-0.35374,-9.76116
14.43579,-0.17433,-0.35763,-9.75203
14.44582,-0.15966,-0.35599,-9.79348
14.45586,-0.15847,-0.34836,-9.75921
14.46589,-0.16909,-0.35374,-9.73976
14.47593,-0.167,-0.35913,-9.77942
14.48597,-0.17089,-0.36018,-9.76685
14.496,-0.17672,-0.36586,-9.75143
14.50604,-0.16086,-0.36676,-9.7631
14.51608,-0.17358,-0.35674,-9.77044
14.52611,-0.1637,-0.35539,-9.77642
14.53615,-0.18061,-0.35718,-9.7432
14.54618,-0.1839,-0.36362,-9.75398
14.55622,-0.16909,-0.34761,-9.78854
14.56626,-0.15443,-0.34611,-9.75712
14.57629,-0.16984,-0.36048,-9.77478
14.58633,-0.17433,-0.36706,-9.77612
14.59637,-0.17223,-0.36347,-9.76819
14.6064,-0.16759,-0.35778,-9.76744
14.61644,-0.16834,-0.36407,-9.78196
14.62647,-0.16251,-0.36108,-9.75877
14.63651,-0.15981,-0.35629,-9.75368
14.64655,-0.17418,-0.36407,-9.78046
14.65658,-0.17119,-0.35464,-9.7652
14.66662,-0.18914,-0.35718,-9.74515
14.67666,-0.16849,-0.34491,-9.77193
14.68669,-0.16535,-0.3521,-9.7842
14.69673,-0.1667,-0.36422,-9.76221
14.70676,-0.16445,-0.37574,-9.75098
14.7168,-0.17478,-0.36137,-9.75682
14.72684,-0.15682,-0.36975,-9.77358
14.73687,-0.16819,-0.36257,-9.75413
14.74691,-0.1878,-0.35778,-9.78705
14.75695,-0.18121,-0.35524,-9.7658
14.76698,-0.17148,-0.35045,-9.74829
14.77702,-0.16909,-0.36167,-9.75473
14.78706,-0.15772,-0.3509,-9.78271
14.79709,-0.17747,-0.3503,-9.78016
14.80713,-0.17927,-0.35389,-9.76325
14.81716,-0.17373,-0.35853,-9.77747
14.8272,-0.16804,-0.35285,-9.75458
14.83724,-0.15383,-0.36856,-9.75712
14.84727,-0.15966,-0.34581,-9.79273
14.85731,-0.16266,-0.35838,-9.78645
14.86735,-0.17343,-0.36018,-9.74425
14.87738,-0.1848,-0.35958,-9.74874
14.88742,-0.16999,-0.35075,-9.7878
14.89745,-0.15547,-0.35165,-9.77298
14.90749,-0.18316,-0.36093,-9.74919
14.91753,-0.17298,-0.35404,-9.77328
14.92756,-0.16984,-0.34596,-9.76909
14.9376,-0.15892,-0.36197,-9.73886
14.94764,-0.18525,-0.36497,-9.76894
14.95767,-0.1878,-0.35285,-9.79124
14.96771,-0.15428,-0.35554,-9.75203
14.97774,-0.17178,-0.35793,-9.72914
14.98778,-0.18914,-0.3524,-9.75877
14.99782,-0.16505,-0.35569,-9.79049
15.00785,-0.13707,-0.35913,-9.78809
15.01789,-0.16445,-0.36167,-9.78271
15.02793,-0.1869,-0.34761,-9.7649
15.03796,-0.17493,-0.36347,-9.75009
15.048,-0.15203,-0.34761,-9.77493
15.05803,-0.16789,-0.35763,-9.80126
15.06807,-0.1854,-0.35748,-9.75443
15.07811,-0.18136,-0.3512,-9.74829
15.08814,-0.15727,-0.34686,-9.78316
15.09818,-0.14979,-0.35823,-9.79273
15.10822,-0.18331,-0.36751,-9.75547
15.11825,-0.16729,-0.36093,-9.75772
15.12829,-0.1667,-0.35704,-9.767
15.13833,-0.17074,-0.35494,-9.76071
15.14836,-0.16984,-0.35584,-9.7667
15.1584,-0.17942,-0.35883,-9.76445
15.16843,-0.16715,-0.36556,-9.75263
15.17847,-0.16011,-0.36033,-9.76909
15.18851,-0.16685,-0.35958,-9.78884
15.19854,-0.15877,-0.35733,-9.7634
15.20858,-0.17178,-0.35045,-9.74231
15.21862,-0.16715,-0.3524,-9.77612
15.22865,-0.17178,-0.36512,-9.77223
15.23869,-0.16191,-0.35689,-9.76774
15.24872,-0.16221,-0.35614,-9.75562
15.25876,-0.16251,-0.35748,-9.75293
15.2688,-0.17627,-0.35674,-9.78241
15.27883,-0.15562,-0.35853,-9.80156
15.28887,-0.16026,-0.36781,-9.767
15.29891,-0.19094,-0.35629,-9.73692
15.30894,-0.17238,-0.35674,-9.767
15.31898,-0.14739,-0.35195,-9.77882
15.32901,-0.16879,-0.36362,-9.76415
15.33905,-0.18241,-0.34851,-9.7655
15.34909,-0.18241,-0.34596,-9.7673
15.35912,-0.16026,-0.35763,-9.74874
15.36916,-0.17343,-0.36227,-9.74455
15.3792,-0.18256,-0.36691,-9.76296
15.38923,-0.13527,-0.35165,-9.81024
15.39927,-0.14904,-0.34881,-9.77867
15.40931,-0.18705,-0.35389,-9.73198
15.41934,-0.18824,-0.35105,-9.74829
15.42938,-0.15996,-0.35733,-9.78989
15.43941,-0.15517,-0.3509,-9.76984
15.44945,-0.16729,-0.35494,-9.78809
15.45949,-0.1845,-0.35838,-9.76445
15.46952,-0.18061,-0.34955,-9.72824
15.47956,-0.16729,-0.35659,-9.76206
15.4896,-0.16744,-0.3527,-9.79109
15.49963,-0.1631,-0.35584,-9.76834
15.50967,-0.15817,-0.34895,-9.75218
15.5197,-0.1652,-0.35494,-9.78061
15.52974,-0.16715,-0.35195,-9.7845
15.53978,-0.16774,-0.36167,-9.74275
15.54981,-0.17178,-0.35644,-9.77448
15.55985,-0.16879,-0.35629,-9.77882
15.56989,-0.16071,-0.353,-9.76774
15.57992,-0.17074,-0.35584,-9.73752
15.58996,-0.16759,-0.36347,-9.77762
15.59999,-0.17927,-0.34806,-9.7845
15.61003,-0.16116,-0.34417,-9.74844
15.62007,-0.16954,-0.36167,-9.76326
15.6301,-0.17567,-0.35195,-9.78944
15.64014,-0.15921,-0.3518,-9.76131
15.65018,-0.15428,-0.34866,-9.77612
15.66021,-0.18061,-0.34372,-9.7857
15.67025,-0.17912,-0.34357,-9.76236
15.68029,-0.17313,-0.35314,-9.73841
15.69032,-0.16011,-0.35913,-9.75562
15.70036,-0.1661,-0.3708,-9.77702
15.71039,-0.18331,-0.35524,-9.75667
15.72043,-0.17104,-0.34866,-9.75712
15.73047,-0.17104,-0.34671,-9.77193
15.7405,-0.1634,-0.35045,-9.75278
15.75054,-0.167,-0.34776,-9.74216
15.76058,-0.1634,-0.353,-9.77253
15.77061,-0.1637,-0.36227,-9.77957
15.78065,-0.16385,-0.34551,-9.76116
15.79068,-0.17657,-0.35524,-9.76236
15.80072,-0.17178,-0.35105,-9.77268
15.81076,-0.16176,-0.36078,-9.7658
15.82079,-0.15877,-0.35389,-9.77029
15.83083,-0.16879,-0.34895,-9.76206
15.84087,-0.17942,-0.34102,-9.76146
15.8509,-0.17119,-0.34761,-9.77029
15.86094,-0.17762,-0.35763,-9.76565
15.87097,-0.17762,-0.3509,-9.7438
15.88101,-0.17942,-0.35509,-9.74784
15.89105,-0.15473,-0.36063,-9.79692
15.90108,-0.15517,-0.36437,-9.77418
15.91112,-0.17777,-0.35404,-9.74784
15.92116,-0.18869,-0.34985,-9.75577
15.93119,-0.1637,-0.3506,-9.75787
15.94123,-0.15906,-0.35733,-9.77343
15.95127,-0.16909,-0.37379,-9.77882
15.9613,-0.17942,-0.36736,-9.77119
15.97134,-0.16729,-0.35225,-9.76266
15.98137,-0.15502,-0.35614,-9.76849
15.99141,-0.17807,-0.35539,-9.76729
16.00145,-0.18241,-0.36167,-9.7652
16.01148,-0.15368,-0.36497,-9.76744
16.02152,-0.17538,-0.36152,-9.78226
16.03156,-0.18705,-0.35674,-9.77388
16.04159,-0.17343,-0.34851,-9.745
16.05163,-0.16939,-0.3506,-9.74934
16.06166,-0.15966,-0.36766,-9.79438
16.0717,-0.18046,-0.35389,-9.77762
16.08174,-0.17148,-0.35045,-9.73213
16.09177,-0.17971,-0.35928,-9.75562
16.10181,-0.17029,-0.35853,-9.78705
16.11185,-0.15069,-0.36227,-9.77508
16.12188,-0.18031,-0.35659,-9.75024
16.13192,-0.17268,-0.35868,-9.75532
16.14196,-0.16565,-0.36093,-9.77193
16.15199,-0.15951,-0.3527,-9.78331
16.16203,-0.17538,-0.34925,-9.7652
16.17206,-0.18914,-0.34462,-9.78166
16.1821,-0.18121,-0.3512,-9.76266
16.19214,-0.16101,-0.34731,-9.7661
16.20217,-0.16729,-0.35644,-9.77807
16.21221,-0.1655,-0.35883,-9.76804
16.22225,-0.16849,-0.35868,-9.7465
16.23228,-0.17044,-0.34342,-9.75787
16.24232,-0.17597,-0.34372,-9.79647
16.25235,-0.17567,-0.36616,-9.76071
16.26239,-0.17717,-0.36392,-9.75084
16.27243,-0.16206,-0.34596,-9.77882
16.28246,-0.15832,-0.34731,-9.75877
16.2925,-0.1664,-0.36317,-9.76565
16.30254,-0.16969,-0.35569,-9.76041
16.31257,-0.1643,-0.35329,-9.77972
16.32261,-0.17448,-0.3503,-9.77597
16.33264,-0.16505,-0.34895,-9.77508
16.34268,-0.17044,-0.36242,-9.76834
16.35272,-0.17927,-0.36167,-9.73288
16.36275,-0.17672,-0.35674,-9.77942
16.37279,-0.17193,-0.35659,-9.80291
16.38283,-0.18286,-0.35045,-9.74799
16.39286,-0.17059,-0.35374,-9.73243
16.4029,-0.1842,-0.3518,-9.7652
16.41294,-0.17014,-0.34342,-9.7649
16.42297,-0.14769,-0.35928,-9.75966
16.43301,-0.1839,-0.36661,-9.75248
16.44304,-0.16999,-0.35539,-9.77747
16.45308,-0.15353,-0.34267,-9.77074
16.46312,-0.17044,-0.35195,-9.767
16.47315,-0.17852,-0.35808,-9.77358
16.48319,-0.17208,-0.34162,-9.76804
16.49323,-0.15113,-0.35853,-9.78585
16.50326,-0.16281,-0.36631,-9.78331
16.5133,-0.17538,-0.3494,-9.75188
16.52333,-0.18615,-0.35674,-9.74709
16.53337,-0.15682,-0.34267,-9.76715
16.54341,-0.16056,-0.34402,-9.7857
16.55344,-0.16819,-0.35883,-9.7661
16.56348,-0.17912,-0.35629,-9.75128
16.57352,-0.16984,-0.34357,-9.77852
16.58355,-0.15742,-0.34447,-9.76311
16.59359,-0.17867,-0.34716,-9.74814
16.60362,-0.17567,-0.36197,-9.77328
16.61366,-0.1631,-0.35778,-9.79258
16.6237,-0.1649,-0.34925,-9.7429
16.63373,-0.17882,-0.34776,-9.72914
16.64377,-0.17433,-0.35329,-9.7649
16.65381,-0.14964,-0.36736,-9.7655
16.66384,-0.15592,-0.35225,-9.7637
16.67388,-0.18959,-0.34791,-9.78001
16.68392,-0.16685,-0.34447,-9.78944
16.69395,-0.16011,-0.35285,-9.76311
16.70399,-0.15892,-0.36167,-9.76281
16.71402,-0.17762,-0.35973,-9.78061
16.72406,-0.17223,-0.35644,-9.75428
16.7341,-0.17193,-0.35659,-9.74515
16.74413,-0.1851,-0.36197,-9.78106
16.75417,-0.16789,-0.36332,-9.76744
16.76421,-0.1655,-0.35165,-9.75443
16.77424,-0.16655,-0.34955,-9.79722
16.78428,-0.16505,-0.35075,-9.77971
16.79431,-0.17567,-0.36497,-9.73497
16.80435,-0.17597,-0.34417,-9.74365
16.81439,-0.15787,-0.35389,-9.78525
16.82442,-0.17163,-0.36467,-9.77238
16.83446,-0.17612,-0.36242,-9.76026
16.8445,-0.16251,-0.35659,-9.76774
16.85453,-0.1661,-0.35554,-9.77104
16.86457,-0.16834,-0.36601,-9.75413
16.87523,-0.16834,-0.36601,-9.75413
16.88527,-0.17971,-0.35793,-9.77089
16.89531,-0.16206,-0.35928,-9.79453
16.90534,-0.16804,-0.353,-9.75188
16.91538,-0.18196,-0.33998,-9.73482
16.92541,-0.17193,-0.3723,-9.7845
16.93545,-0.15009,-0.35704,-9.79348
16.94549,-0.15892,-0.3515,-9.76191
16.95552,-0.18465,-0.35823,-9.76146
16.96556,-0.18465,-0.35943,-9.75712
16.9756,-0.15981,-0.35808,-9.74979
16.98563,-0.16505,-0.35554,-9.75921
16.99567,-0.18061,-0.35584,-9.78465
17.00571,-0.1854,-0.35479,-9.77538
17.01574,-0.17014,-0.3506,-9.74844
17.02578,-0.17523,-0.34701,-9.77418
17.03581,-0.1842,-0.36048,-9.76595
17.04585,-0.18316,-0.36272,-9.76131
17.05589,-0.16864,-0.3512,-9.79094
17.06592,-0.16804,-0.35883,-9.79318
17.07596,-0.18884,-0.35285,-9.75458
17.086,-0.17957,-0.35464,-9.76595
17.09603,-0.17193,-0.34671,-9.78585
17.10607,-0.17223,-0.3509,-9.77912
17.1161,-0.17971,-0.35973,-9.7637
17.12614,-0.17044,-0.35314,-9.77837
17.13618,-0.17238,-0.35419,-9.77253
17.14621,-0.1643,-0.34686,-9.76505
17.15625,-0.17762,-0.35928,-9.76849
17.16628,-0.18555,-0.34252,-9.76445
17.17632,-0.1634,-0.35718,-9.76161
17.18636,-0.1667,-0.35898,-9.76774
17.19639,-0.17493,-0.35494,-9.786
17.20643,-0.17373,-0.34656,-9.76086
17.21647,-0.17732,-0.35689,-9.75353
17.2265,-0.17089,-0.3506,-9.7667
17.23654,-0.16236,-0.3527,-9.76655
17.24658,-0.16909,-0.35674,-9.75517
17.25661,-0.16834,-0.35928,-9.7649
17.26665,-0.17148,-0.35449,-9.7652
17.27669,-0.16296,-0.35539,-9.76056
17.28672,-0.16924,-0.36452,-9.76909
17.29676,-0.15981,-0.3494,-9.77313
17.30679,-0.16969,-0.35718,-9.75398
17.31683,-0.17448,-0.36212,-9.74919
17.32687,-0.16251,-0.36182,-9.79827
17.3369,-0.1658,-0.36407,-9.77867
17.34694,-0.17134,-0.35539,-9.73797
17.35697,-0.18121,-0.34701,-9.75248
17.36701,-0.17403,-0.34836,-9.77223
17.37705,-0.15098,-0.34776,-9.78435
17.38708,-0.16804,-0.35958,-9.77717
17.39712,-0.17986,-0.36137,-9.78331
17.40716,-0.16041,-0.36482,-9.75158
17.41719,-0.15263,-0.35958,-9.76505
17.42723,-0.17538,-0.36871,-9.76595
17.43727,-0.16834,-0.35225,-9.77238
17.4473,-0.1655,-0.36018,-9.75368
17.45734,-0.17508,-0.35135,-9.77208
17.46738,-0.18705,-0.34611,-9.77582
17.47741,-0.18525,-0.35659,-9.74051
17.48745,-0.17268,-0.35898,-9.75278
17.49748,-0.15323,-0.36407,-9.79767
17.50752,-0.167,-0.36152,-9.77552
17.51756,-0.18824,-0.35748,-9.73467
17.52759,-0.17283,-0.35135,-9.74679
17.53763,-0.15921,-0.36377,-9.8047
17.54766,-0.15682,-0.34716,-9.78226
17.5577,-0.18794,-0.35823,-9.76311
17.56836,-0.18794,-0.35823,-9.76311
17.5784,-0.16191,-0.36482,-9.75951
17.58844,-0.15936,-0.3491,-9.7857
17.59847,-0.17208,-0.36242,-9.79213
17.60851,-0.18226,-0.3497,-9.7664
17.61855,-0.16894,-0.34731,-9.75458
17.62858,-0.15727,-0.3512,-9.77942
17.63862,-0.16131,-0.36497,-9.78106
17.64865,-0.16715,-0.34776,-9.74904
17.65869,-0.17538,-0.34087,-9.76565
17.66873,-0.16939,-0.36482,-9.80186
17.67876,-0.17089,-0.36033,-9.77403
17.6888,-0.17612,-0.35419,-9.73019
17.69884,-0.17014,-0.35928,-9.7661
17.70887,-0.16176,-0.34821,-9.77971
17.71891,-0.15862,-0.34881,-9.77627
17.72895,-0.18151,-0.35374,-9.75502
17.73898,-0.18765,-0.35928,-9.75353
17.74902,-0.17567,-0.34895,-9.75832
17.75905,-0.1634,-0.35195,-9.77089
17.76909,-0.16266,-0.36317,-9.79333
17.77913,-0.18106,-0.36227,-9.76849
17.78916,-0.16415,-0.35958,-9.73961
17.7992,-0.16475,-0.36287,-9.77612
17.80924,-0.17957,-0.35464,-9.77119
17.81927,-0.17044,-0.35075,-9.74395
17.82931,-0.16475,-0.36392,-9.77029
17.83934,-0.15742,-0.35494,-9.79767
17.84938,-0.16954,-0.34566,-9.76475
17.85942,-0.19079,-0.34028,-9.74261
17.86945,-0.18061,-0.34866,-9.78331
17.87949,-0.16056,-0.37215,-9.77627
17.88953,-0.16206,-0.36152,-9.75353
17.89956,-0.16879,-0.36497,-9.7634
17.9096,-0.17538,-0.36467,-9.77882
17.91964,-0.16086,-0.3521,-9.75921
17.92967,-0.16041,-0.34462,-9.764
17.93971,-0.17702,-0.34955,-9.7866
17.94974,-0.17178,-0.34761,-9.74575
17.95978,-0.16789,-0.35449,-9.7652
17.96982,-0.16715,-0.35913,-9.77642
17.97985,-0.16041,-0.35913,-9.77119
17.98989,-0.16101,-0.35075,-9.7637
17.99993,-0.16909,-0.35554,-9.76191
18.00996,-0.17268,-0.34626,-9.75996
18.02,-0.17448,-0.35344,-9.75473
18.03003,-0.1655,-0.36093,-9.76879
18.04007,-0.15817,-0.3491,-9.7872
18.05011,-0.16804,-0.33968,-9.75592
18.06014,-0.16715,-0.3503,-9.7432
18.07018,-0.16026,-0.34881,-9.78735
18.08022,-0.15562,-0.36527,-9.77178
18.09025,-0.17657,-0.36302,-9.73842
18.10029,-0.17448,-0.35659,-9.77702
18.11033,-0.15592,-0.36048,-9.78226
18.12036,-0.15652,-0.3515,-9.76131
18.1304,-0.16804,-0.3512,-9.74769
18.14043,-0.17777,-0.35569,-9.7655
18.15047,-0.15083,-0.3735,-9.77538
18.16051,-0.16041,-0.35329,-9.75413
18.17054,-0.18331,-0.35898,-9.76251
18.18058,-0.18031,-0.36003,-9.74754
18.19062,-0.17223,-0.36003,-9.77283
18.20065,-0.15996,-0.35733,-9.79573
18.21069,-0.17148,-0.35928,-9.77852
18.22073,-0.18585,-0.36362,-9.73123
18.23076,-0.17897,-0.35793,-9.7643
18.2408,-0.14844,-0.36123,-9.79288
18.25083,-0.16191,-0.34881,-9.77837
18.26087,-0.17762,-0.36452,-9.75128
18.27091,-0.16804,-0.36078,-9.7649
18.28094,-0.17627,-0.35674,-9.76311
18.29098,-0.16056,-0.35913,-9.74186
18.30102,-0.16789,-0.3711,-9.7634
18.31105,-0.17702,-0.36586,-9.77822
18.32109,-0.15667,-0.35195,-9.77508
18.33112,-0.17478,-0.34836,-9.74709
18.34116,-0.18824,-0.36078,-9.75832
18.3512,-0.17358,-0.36003,-9.76909
18.36123,-0.15143,-0.35793,-9.77373
18.37127,-0.15143,-0.35778,-9.7842
18.38131,-0.17178,-0.36542,-9.767
18.39134,-0.17687,-0.35329,-9.73318
18.40138,-0.16221,-0.36317,-9.76146
18.41142,-0.16086,-0.3494,-9.78585
18.42145,-0.16535,-0.35644,-9.77807
18.43149,-0.17612,-0.3506,-9.73737
18.44152,-0.16804,-0.3494,-9.76999
18.45156,-0.16685,-0.35374,-9.78645
18.4616,-0.16445,-0.35868,-9.77238
18.47163,-0.17388,-0.35674,-9.74829
18.48167,-0.1652,-0.35554,-9.7652
18.49171,-0.18301,-0.35554,-9.77717
18.50174,-0.15443,-0.36123,-9.77448
18.51178,-0.17134,-0.35823,-9.75233
18.52181,-0.17747,-0.36527,-9.73108
18.53185,-0.16011,-0.35808,-9.77986
18.54189,-0.15024,-0.35045,-9.80545
18.55192,-0.15682,-0.34925,-9.78016
18.56196,-0.19184,-0.36137,-9.72749
18.572,-0.17238,-0.35314,-9.767
18.58203,-0.14724,-0.35015,-9.78031
18.59207,-0.16056,-0.34746,-9.76475
18.60211,-0.1875,-0.36392,-9.7438
18.61214,-0.16475,-0.37649,-9.76236
18.62218,-0.1456,-0.34761,-9.75996
18.63221,-0.16595,-0.35599,-9.75951
18.64225,-0.18705,-0.35449,-9.77328
18.65229,-0.17238,-0.35958,-9.75098
18.66232,-0.14769,-0.3515,-9.75817
18.67236,-0.16131,-0.36796,-9.7661
18.6824,-0.18824,-0.35584,-9.75592
18.69243,-0.17523,-0.35285,-9.75054
18.70247,-0.15921,-0.36123,-9.76146
18.7125,-0.16909,-0.35524,-9.78405
18.72254,-0.1661,-0.36018,-9.76191
18.73258,-0.15712,-0.35614,-9.74051
18.74261,-0.15547,-0.35539,-9.75847
18.75265,-0.16729,-0.36347,-9.78869
18.76269,-0.17388,-0.35554,-9.7637
18.77272,-0.18106,-0.34701,-9.75951
18.78276,-0.17867,-0.35225,-9.75009
18.7928,-0.16984,-0.36123,-9.7652
18.80283,-0.15802,-0.35629,-9.77957
18.81287,-0.17044,-0.36108,-9.78301
18.8229,-0.18869,-0.36033,-9.76984
18.83294,-0.19199,-0.35135,-9.75039
18.84298,-0.17044,-0.34821,-9.77568
18.85301,-0.16191,-0.36317,-9.77014
18.86305,-0.16759,-0.36437,-9.74904
18.87309,-0.17044,-0.3705,-9.77193
18.88312,-0.15847,-0.35015,-9.78959
18.89316,-0.16011,-0.35165,-9.76894
18.9032,-0.18256,-0.36212,-9.75098
18.91323,-0.17747,-0.35808,-9.7661
18.92327,-0.15428,-0.35419,-9.76685
18.9333,-0.14859,-0.34342,-9.76281
18.94334,-0.1875,-0.36078,-9.76236
18.95338,-0.18435,-0.3518,-9.76281
18.96341,-0.15847,-0.35689,-9.75966
18.97345,-0.15263,-0.36257,-9.76131
18.98349,-0.17777,-0.36137,-9.77178
18.99352,-0.17283,-0.36706,-9.75263
19.00356,-0.164,-0.34716,-9.74799
19.01359,-0.16909,-0.3524,-9.77238
19.02363,-0.1667,-0.35479,-9.77134
19.03367,-0.18211,-0.35374,-9.74694
19.0437,-0.16236,-0.35015,-9.75592
19.05374,-0.15143,-0.36257,-9.78091
19.06378,-0.15473,-0.36063,-9.78376
19.07381,-0.17657,-0.34895,-9.75697
19.08385,-0.18361,-0.35689,-9.75218
19.09389,-0.17044,-0.34851,-9.7649
19.10392,-0.17089,-0.35868,-9.76759
19.11396,-0.18106,-0.36452,-9.7652
19.124,-0.17418,-0.35704,-9.75562
19.13403,-0.17448,-0.35644,-9.75981
19.14407,-0.16849,-0.34701,-9.76984
19.1541,-0.16221,-0.34776,-9.76415
19.16414,-0.18076,-0.35464,-9.74246
19.17418,-0.17702,-0.35973,-9.75547
19.18421,-0.15502,-0.35644,-9.79947
19.19425,-0.1658,-0.35165,-9.78076
19.20428,-0.18286,-0.36048,-9.7462
19.21432,-0.1872,-0.3503,-9.75383
19.22436,-0.16939,-0.35599,-9.78525
19.23439,-0.14784,-0.35748,-9.75667
19.24443,-0.17089,-0.36646,-9.73797
19.25447,-0.18121,-0.35793,-9.7842
19.2645,-0.16505,-0.35539,-9.78301
19.27454,-0.16296,-0.34866,-9.75862
19.28458,-0.1857,-0.36676,-9.75083
19.29461,-0.17388,-0.36452,-9.77208
19.30465,-0.16355,-0.35763,-9.76969
19.31468,-0.16221,-0.36482,-9.79632
19.32472,-0.17418,-0.35374,-9.77538
19.33476,-0.18839,-0.35464,-9.76086
19.34479,-0.16685,-0.3503,-9.74081
19.35483,-0.15712,-0.36556,-9.77942
19.36487,-0.16221,-0.35988,-9.79483
19.3749,-0.17014,-0.35973,-9.74664
19.38494,-0.17747,-0.35344,-9.76281
19.39498,-0.17552,-0.35374,-9.7869
19.40501,-0.18106,-0.36167,-9.77882
19.41505,-0.17104,-0.35748,-9.76161
19.42509,-0.17642,-0.34851,-9.76475
19.43512,-0.16116,-0.35674,-9.78271
19.44516,-0.18046,-0.35868,-9.76221
19.45519,-0.17957,-0.36003,-9.76146
19.46523,-0.16864,-0.35554,-9.76565
19.47527,-0.17867,-0.35464,-9.76176
19.4853,-0.18256,-0.35853,-9.78166
19.49534,-0.16655,-0.35464,-9.79213
19.50538,-0.15802,-0.3705,-9.75502
19.51541,-0.17657,-0.35464,-9.73437
19.52545,-0.18001,-0.36063,-9.7872
19.53548,-0.15143,-0.35314,-9.79827
19.54552,-0.17014,-0.35659,-9.75502
19.55556,-0.18346,-0.35883,-9.75024
19.56559,-0.17672,-0.35494,-9.78316
19.57563,-0.15113,-0.3524,-9.7842
19.58567,-0.15727,-0.35689,-9.75607
19.5957,-0.17927,-0.36811,-9.77119
19.60574,-0.1872,-0.3518,-9.77568
19.61577,-0.16819,-0.35434,-9.76625
19.62581,-0.15817,-0.36048,-9.77059
19.63585,-0.18331,-0.36676,-9.77059
19.64588,-0.17178,-0.36108,-9.75892
19.65592,-0.14979,-0.35329,-9.77059
19.66596,-0.15009,-0.36302,-9.78061
19.67599,-0.1839,-0.35614,-9.77553
19.68603,-0.17029,-0.36527,-9.75233
19.69607,-0.16011,-0.35105,-9.76894
19.7061,-0.16475,-0.3524,-9.77822
19.71614,-0.18046,-0.36018,-9.75847
19.72617,-0.17119,-0.35045,-9.76804
19.73621,-0.16026,-0.35659,-9.76056
19.74625,-0.16296,-0.3527,-9.77014
19.75628,-0.15966,-0.36212,-9.76131
19.76632,-0.16715,-0.37005,-9.76415
19.77636,-0.17986,-0.36152,-9.76415
19.78639,-0.167,-0.36287,-9.75637
19.79643,-0.1634,-0.35599,-9.78465
19.80647,-0.1652,-0.35748,-9.77687
19.8165,-0.17822,-0.34506,-9.75473
19.82654,-0.18151,-0.3527,-9.75966
19.83657,-0.1652,-0.36512,-9.77044
19.84661,-0.16086,-0.35359,-9.75308
19.85665,-0.18301,-0.36527,-9.77044
19.86668,-0.17702,-0.35704,-9.78001
19.87672,-0.16415,-0.35255,-9.76804
19.88676,-0.17403,-0.34117,-9.74994
19.89679,-0.17328,-0.35629,-9.75054
19.90683,-0.17208,-0.34581,-9.77702
19.91686,-0.1649,-0.34626,-9.76984
19.9269,-0.16026,-0.36212,-9.77912
19.93694,-0.17957,-0.36676,-9.76131
19.94697,-0.17986,-0.35374,-9.74694
19.95701,-0.16071,-0.36512,-9.77104
19.96705,-0.15278,-0.36841,-9.79707
19.97708,-0.16086,-0.35434,-9.74709
19.98712,-0.18675,-0.36033,-9.73168
19.99716,-0.15113,-0.34342,-9.77822
20.00719,-0.15682,-0.34611,-9.79752
20.01723,-0.16789,-0.34402,-9.75487
20.02726,-0.17538,-0.35644,-9.75487
20.0373,-0.17119,-0.35464,-9.7646
20.04734,-0.15607,-0.35569,-9.7658
20.05737,-0.16625,-0.36137,-9.77882
20.06741,-0.17942,-0.36287,-9.77283
20.07745,-0.17552,-0.35419,-9.75383
20.08748,-0.16296,-0.35329,-9.75562
20.09752,-0.1667,-0.3521,-9.79199
20.10756,-0.17463,-0.36018,-9.77642
20.11759,-0.17029,-0.36631,-9.73168
20.12763,-0.15502,-0.35718,-9.7438
20.13767,-0.16715,-0.35075,-9.79363
20.1477,-0.16296,-0.36212,-9.7661
20.15774,-0.17178,-0.35793,-9.7444
20.16777,-0.18735,-0.3518,-9.76101
20.17781,-0.16999,-0.35419,-9.77448
20.18785,-0.16385,-0.35943,-9.77448
20.19788,-0.16415,-0.36542,-9.77149
20.20792,-0.19184,-0.353,-9.76011
20.21796,-0.16969,-0.35344,-9.7441
20.22799,-0.15443,-0.35733,-9.7667
20.23803,-0.16789,-0.36063,-9.78001
20.24806,-0.17538,-0.35344,-9.7661
20.2581,-0.17627,-0.35434,-9.75622
20.26814,-0.15996,-0.35704,-9.75517
20.27817,-0.16625,-0.35988,-9.75757
20.28821,-0.18061,-0.35629,-9.7646
20.29825,-0.16879,-0.34985,-9.77642
20.30828,-0.17433,-0.35135,-9.76924
20.31832,-0.17134,-0.35464,-9.76759
20.32835,-0.17986,-0.36093,-9.76939
20.33839,-0.15682,-0.3521,-9.77193
20.34843,-0.15218,-0.34596,-9.76281
20.35846,-0.15203,-0.3524,-9.76984
20.3685,-0.18974,-0.35255,-9.77882
20.37854,-0.17717,-0.34671,-9.75009
20.38857,-0.17478,-0.35718,-9.74156
20.39861,-0.16595,-0.35913,-9.78615
20.40865,-0.16849,-0.35314,-9.80201
20.41868,-0.17373,-0.34925,-9.75443
20.42872,-0.18196,-0.36556,-9.73662
20.43875,-0.17029,-0.36586,-9.78376
20.44879,-0.16729,-0.3527,-9.77912
20.45883,-0.16999,-0.36003,-9.75248
20.46886,-0.18316,-0.35689,-9.77178
20.4789,-0.17193,-0.34925,-9.767
20.48894,-0.16939,-0.35584,-9.75817
20.49897,-0.17552,-0.3527,-9.75607
20.50901,-0.18001,-0.35479,-9.77597
20.51905,-0.16804,-0.35419,-9.75637
20.52908,-0.16071,-0.3497,-9.76505
20.53912,-0.15637,-0.35434,-9.79468
20.54916,-0.17328,-0.35389,-9.75113
20.55919,-0.17777,-0.37275,-9.73797
20.56923,-0.16984,-0.34207,-9.78301
20.57926,-0.15832,-0.34566,-9.80051
20.5893,-0.17343,-0.35808,-9.75458
20.59934,-0.18645,-0.34761,-9.74141
20.60937,-0.18585,-0.34866,-9.7854
20.61941,-0.1655,-0.35898,-9.78211
20.62945,-0.15847,-0.36242,-9.77418
20.63948,-0.1866,-0.3521,-9.78271
20.64952,-0.17657,-0.35494,-9.74859
20.65955,-0.16804,-0.35329,-9.74455
20.66959,-0.164,-0.35524,-9.77971
20.67963,-0.17089,-0.36137,-9.78226
20.68966,-0.16625,-0.36527,-9.75592
20.6997,-0.16415,-0.34297,-9.76834
20.70974,-0.17508,-0.35778,-9.78869
20.71977,-0.16924,-0.36571,-9.75487
20.72981,-0.17582,-0.35539,-9.75353
20.73984,-0.17717,-0.3512,-9.77493
20.74988,-0.15592,-0.35988,-9.78795
20.75992,-0.15862,-0.36257,-9.75892
20.76995,-0.18301,-0.35135,-9.75637
20.77999,-0.17957,-0.35898,-9.75981
20.79003,-0.17074,-0.35329,-9.77807
20.80006,-0.14186,-0.35329,-9.75981
20.8101,-0.17672,-0.3524,-9.77059
20.82014,-0.18151,-0.36317,-9.76595
20.83017,-0.15278,-0.36542,-9.76475
20.84021,-0.15981,-0.36542,-9.79408
20.85025,-0.17702,-0.34791,-9.76939
20.86028,-0.18525,-0.35464,-9.74485
20.87032,-0.17343,-0.3515,-9.7649
20.88098,-0.17343,-0.3515,-9.7649
20.89102,-0.17343,-0.3515,-9.7649
20.90105,-0.1649,-0.3527,-9.76221
20.91109,-0.17148,-0.35733,-9.77163
20.92113,-0.16924,-0.35,-9.77747
20.93116,-0.16864,-0.35135,-9.767
20.9412,-0.18435,-0.35718,-9.75562
20.95124,-0.17927,-0.35674,-9.75368
20.96127,-0.17448,-0.34641,-9.77942
20.97131,-0.15996,-0.35524,-9.77912
20.98134,-0.17104,-0.35718,-9.76849
20.99138,-0.16849,-0.36018,-9.73348
21.00142,-0.17388,-0.36901,-9.76625
21.01145,-0.15458,-0.34866,-9.78346
21.02149,-0.15951,-0.3527,-9.76176
21.03153,-0.18076,-0.37035,-9.75966
21.04156,-0.1854,-0.37305,-9.77568
21.0516,-0.16296,-0.34162,-9.77822
21.06164,-0.16655,-0.34656,-9.77029
21.07167,-0.20276,-0.35793,-9.75951
21.08171,-0.18091,-0.36452,-9.75203
21.09174,-0.16685,-0.35419,-9.76939
21.10178,-0.16296,-0.35748,-9.78914
21.11182,-0.17313,-0.3503,-9.76924
21.12185,-0.18375,-0.35913,-9.73871
21.13189,-0.17134,-0.34477,-9.75951
21.14193,-0.16056,-0.35225,-9.79483
21.15196,-0.1649,-0.35629,-9.76849
21.162,-0.17208,-0.36392,-9.72046
21.17203,-0.18495,-0.36467,-9.75143
21.18207,-0.15727,-0.34731,-9.80545
21.19211,-0.15009,-0.35464,-9.75832
21.20214,-0.1845,-0.35554,-9.74665
21.21218,-0.18346,-0.35733,-9.75024
21.22222,-0.16026,-0.35479,-9.76849
21.23225,-0.15173,-0.35704,-9.77732
21.24229,-0.18076,-0.36826,-9.77777
21.25233,-0.19019,-0.3494,-9.75652
21.26236,-0.17208,-0.3494,-9.73348
21.2724,-0.17538,-0.35165,-9.77882
21.28244,-0.17059,-0.35075,-9.79333
21.29247,-0.17657,-0.36796,-9.74635
21.30251,-0.17478,-0.35614,-9.745
21.31254,-0.16729,-0.35524,-9.77508
21.32258,-0.15936,-0.36347,-9.7851
21.33262,-0.1667,-0.35883,-9.75592
21.34265,-0.17478,-0.36467,-9.74694
21.35269,-0.16161,-0.33564,-9.7845
21.36273,-0.16325,-0.35195,-9.78989
21.37276,-0.16415,-0.35569,-9.75951
21.3828,-0.17223,-0.3503,-9.74605
21.39283,-0.16819,-0.3699,-9.77029
21.40287,-0.15682,-0.35225,-9.79288
21.41291,-0.15996,-0.34521,-9.78765
21.42294,-0.18675,-0.35778,-9.73662
21.43298,-0.18989,-0.36646,-9.75069
21.44302,-0.15936,-0.36182,-9.7842
21.45305,-0.15622,-0.36063,-9.80081
21.46309,-0.18046,-0.36093,-9.74485
21.47312,-0.19543,-0.35943,-9.73333
21.48316,-0.16176,-0.35404,-9.77433
21.4932,-0.13991,-0.36482,-9.78391
21.50323,-0.17208,-0.3512,-9.76281
21.51327,-0.18765,-0.3503,-9.74664
21.52331,-0.1643,-0.3512,-9.77657
21.53334,-0.15652,-0.36332,-9.78645
21.54338,-0.17597,-0.35479,-9.77193
21.55342,-0.19124,-0.36347,-9.7456
21.56408,-0.15368,-0.35973,-9.80785
21.57412,-0.15368,-0.35973,-9.80785
21.58415,-0.17328,-0.35434,-9.78914
21.59419,-0.17672,-0.35763,-9.74679
21.60422,-0.17373,-0.36347,-9.726
21.61426,-0.14859,-0.36317,-9.77971
21.6243,-0.16281,-0.36691,-9.8071
21.63433,-0.19423,-0.3491,-9.75054
21.64437,-0.19273,-0.35225,-9.7432
21.65441,-0.1637,-0.35883,-9.77403
21.66444,-0.16206,-0.36407,-9.78705
21.67448,-0.17193,-0.36018,-9.75278
21.68452,-0.17777,-0.36048,-9.74769
21.69455,-0.16969,-0.35479,-9.7643
21.70459,-0.1661,-0.34746,-9.77568
21.71462,-0.17238,-0.35748,-9.7661
21.72466,-0.17897,-0.36227,-9.75892
21.7347,-0.17418,-0.35793,-9.75892
21.74473,-0.17238,-0.36377,-9.76266
21.75477,-0.16625,-0.36556,-9.77508
21.76481,-0.16999,-0.36048,-9.76475
21.77484,-0.18331,-0.35075,-9.74814
21.78488,-0.17687,-0.3521,-9.78286
21.79492,-0.16026,-0.34686,-9.8059
21.80495,-0.16146,-0.35434,-9.75787
21.81499,-0.17208,-0.35659,-9.73333
21.82502,-0.16101,-0.34985,-9.76984
21.83506,-0.14694,-0.35763,-9.78181
21.8451,-0.16445,-0.35374,-9.77388
21.85513,-0.19109,-0.35718,-9.74246
21.86517,-0.19019,-0.34851,-9.7634
21.87521,-0.1652,-0.34821,-9.77538
21.88524,-0.15862,-0.3524,-9.77268
21.89528,-0.1857,-0.36661,-9.74934
21.90531,-0.1842,-0.35494,-9.75847
21.91535,-0.15487,-0.35105,-9.77493
21.92539,-0.1447,-0.3512,-9.77837
21.93542,-0.1667,-0.35868,-9.76759
21.94546,-0.186,-0.36257,-9.75398
21.9555,-0.16744,-0.3518,-9.76655
21.96553,-0.15024,-0.35509,-9.77957
21.97557,-0.18301,-0.34895,-9.7667
21.98561,-0.18196,-0.35793,-9.74485
21.99564,-0.15877,-0.35344,-9.76236
22.00568,-0.1667,-0.35539,-9.7854
22.01571,-0.17388,-0.36018,-9.79109
22.02575,-0.17343,-0.36018,-9.75248
22.03579,-0.16146,-0.34686,-9.75847
22.04582,-0.15847,-0.36212,-9.7646
22.05586,-0.1649,-0.35494,-9.7839
22.0659,-0.17044,-0.35075,-9.75383
22.07593,-0.17762,-0.33848,-9.75742
22.08597,-0.1845,-0.35389,-9.77193
22.09601,-0.15547,-0.35808,-9.78031
22.10604,-0.164,-0.35793,-9.76565
22.11608,-0.18076,-0.36901,-9.76146
22.12611,-0.15128,-0.36392,-9.77029
22.13615,-0.16759,-0.36152,-9.76415
22.14619,-0.18121,-0.35359,-9.76101
22.15622,-0.1857,-0.35763,-9.76834
22.16626,-0.17418,-0.35015,-9.78375
22.1763,-0.16505,-0.35823,-9.77897
22.18633,-0.1661,-0.35599,-9.77837
22.19637,-0.17208,-0.36377,-9.75742
22.20641,-0.1646,-0.3506,-9.74425
22.21644,-0.15847,-0.35165,-9.76236
22.22648,-0.15727,-0.36212,-9.79243
22.23651,-0.17657,-0.35629,-9.76789
22.24655,-0.18226,-0.36167,-9.75024
22.25659,-0.17837,-0.34761,-9.77732
22.26662,-0.17268,-0.36212,-9.79842
22.27666,-0.16355,-0.36272,-9.75847
22.2867,-0.18046,-0.35509,-9.74754
22.29673,-0.16789,-0.35943,-9.77912
22.30677,-0.14919,-0.36182,-9.78645
22.3168,-0.16086,-0.35988,-9.76296
22.32684,-0.1845,-0.35135,-9.77044
22.33688,-0.16924,-0.35629,-9.76939
22.34691,-0.16984,-0.35359,-9.75892
22.35695,-0.16251,-0.34746,-9.75383
22.36699,-0.1839,-0.35419,-9.767
22.37702,-0.18136,-0.36048,-9.76191
22.38706,-0.17014,-0.34716,-9.74904
22.3971,-0.1664,-0.3503,-9.78555
22.40713,-0.167,-0.35404,-9.75413
22.41717,-0.16999,-0.36586,-9.74171
22.4272,-0.15877,-0.36033,-9.76385
22.43724,-0.16999,-0.35674,-9.77567
22.44728,-0.16969,-0.34447,-9.77148
22.45731,-0.1661,-0.34731,-9.76969
22.46735,-0.16415,-0.36766,-9.76026
22.47739,-0.17493,-0.36048,-9.77298
22.48742,-0.15996,-0.34656,-9.75263
22.49746,-0.16565,-0.35718,-9.77493
22.5075,-0.16445,-0.35599,-9.78301
22.51753,-0.16625,-0.35943,-9.7649
22.52757,-0.18375,-0.34791,-9.76969
22.5376,-0.17971,-0.34387,-9.77163
22.54764,-0.16789,-0.34985,-9.76894
22.55768,-0.16281,-0.35973,-9.77523
22.56771,-0.1655,-0.35404,-9.77627
22.57775,-0.18106,-0.35883,-9.75113
22.58779,-0.17792,-0.36167,-9.7655
22.59782,-0.17627,-0.34477,-9.78076
22.60786,-0.16849,-0.35599,-9.76011
22.6179,-0.17283,-0.35763,-9.75847
22.62793,-0.17029,-0.36452,-9.78046
22.63797,-0.17134,-0.34806,-9.76729
22.648,-0.17837,-0.3515,-9.75039
22.65804,-0.17612,-0.3512,-9.77927
22.66808,-0.16475,-0.35599,-9.79019
22.67811,-0.15577,-0.34895,-9.75547
22.68815,-0.1637,-0.3521,-9.74605
22.69819,-0.18046,-0.34237,-9.76116
22.70822,-0.18241,-0.35644,-9.76744
22.71826,-0.16655,-0.353,-9.75772
22.7283,-0.17163,-0.35479,-9.76774
22.73833,-0.17777,-0.36661,-9.78121
22.74837,-0.15921,-0.35569,-9.7634
22.7584,-0.1655,-0.34447,-9.7664
22.76844,-0.18211,-0.35659,-9.78121
22.77848,-0.16909,-0.35614,-9.7634
22.78851,-0.16296,-0.35255,-9.75098
22.79855,-0.15877,-0.35943,-9.75817
22.80859,-0.1863,-0.36512,-9.76774
22.81862,-0.1839,-0.35614,-9.75906
22.82866,-0.15981,-0.35075,-9.79198
22.8387,-0.164,-0.35823,-9.77927
22.84873,-0.1839,-0.34447,-9.76266
22.85877,-0.17059,-0.35434,-9.74874
22.8688,-0.15921,-0.35479,-9.78376
22.87884,-0.16565,-0.35524,-9.77059
22.88888,-0.17044,-0.35404,-9.74859
22.89891,-0.17403,-0.34731,-9.76161
22.90895,-0.17134,-0.36108,-9.79169
22.91899,-0.1643,-0.36841,-9.76236
22.92902,-0.18361,-0.36392,-9.75024
22.93906,-0.16206,-0.35329,-9.78869
22.94909,-0.16011,-0.3515,-9.77029
22.95913,-0.17403,-0.35479,-9.75503
22.96917,-0.18361,-0.36646,-9.75323
22.9792,-0.18615,-0.35958,-9.77971
22.98924,-0.15562,-0.34477,-9.76625
22.99928,-0.16849,-0.35988,-9.76385
23.00931,-0.18854,-0.35015,-9.76281
23.01935,-0.16834,-0.36033,-9.75338
23.02939,-0.15787,-0.36601,-9.75128
23.03942,-0.15772,-0.34746,-9.78869
23.04946,-0.17403,-0.35674,-9.78241
23.05949,-0.17582,-0.35689,-9.75368
23.06953,-0.16999,-0.36167,-9.77642
23.07957,-0.15697,-0.34776,-9.7664
23.0896,-0.16969,-0.3497,-9.74305
23.09964,-0.17852,-0.36826,-9.75143
23.10968,-0.16176,-0.35404,-9.77298
23.11971,-0.17208,-0.35584,-9.7845
23.12975,-0.17627,-0.36078,-9.764
23.13979,-0.16325,-0.35509,-9.78031
23.14982,-0.16685,-0.36766,-9.78585
23.15986,-0.16236,-0.36422,-9.75098
23.16989,-0.17134,-0.35524,-9.75996
23.17993,-0.16729,-0.35449,-9.77313
23.18997,-0.15697,-0.35883,-9.77912
23.2,-0.167,-0.36347,-9.75488
23.21004,-0.16849,-0.34402,-9.77298
23.22008,-0.1652,-0.35674,-9.77089
23.23011,-0.17717,-0.3512,-9.76116
23.24015,-0.1634,-0.34611,-9.77523
23.25019,-0.17657,-0.34881,-9.76819
23.26022,-0.18121,-0.36452,-9.76475
23.27026,-0.17343,-0.35629,-9.78121
23.28029,-0.17942,-0.35584,-9.76595
23.29033,-0.17163,-0.36242,-9.75637
23.30037,-0.16041,-0.35389,-9.76071
23.3104,-0.16146,-0.36272,-9.78765
23.32044,-0.16296,-0.34985,-9.78151
23.33048,-0.16116,-0.35045,-9.7652
23.34051,-0.1637,-0.35449,-9.77672
23.35055,-0.16655,-0.35599,-9.75787
23.36059,-0.17313,-0.36601,-9.74904
23.37062,-0.16984,-0.36586,-9.78076
23.38066,-0.15592,-0.35733,-9.78839
23.39069,-0.17642,-0.36063,-9.75652
23.40073,-0.16879,-0.3509,-9.77178
23.41077,-0.16595,-0.35599,-9.77298
23.4208,-0.16999,-0.35973,-9.73438
23.43084,-0.16969,-0.35958,-9.76281
23.44088,-0.1643,-0.35614,-9.79453
23.45091,-0.17343,-0.36841,-9.77582
23.46095,-0.17897,-0.35689,-9.75218
23.47099,-0.19154,-0.35599,-9.76355
23.48102,-0.15772,-0.34895,-9.79169
23.49106,-0.16026,-0.36063,-9.77253
23.50109,-0.17762,-0.36975,-9.74784
23.51113,-0.16595,-0.36048,-9.7652
23.52117,-0.15981,-0.35898,-9.75233
23.5312,-0.16685,-0.35255,-9.7649
23.54124,-0.17388,-0.34836,-9.78046
23.55128,-0.17358,-0.35868,-9.77687
23.56131,-0.16939,-0.35285,-9.76625
23.57135,-0.16685,-0.36212,-9.76206
23.58139,-0.17343,-0.35928,-9.7643
23.59142,-0.1872,-0.34596,-9.75188
23.60146,-0.16011,-0.35599,-9.76251
23.61149,-0.16266,-0.35135,-9.78271
23.62153,-0.16595,-0.35419,-9.77238
23.63157,-0.18001,-0.35569,-9.75083
23.6416,-0.17927,-0.35958,-9.75921
23.65164,-0.15487,-0.34701,-9.77822
23.66168,-0.16415,-0.35659,-9.78615
23.67171,-0.17343,-0.34761,-9.76475
23.68175,-0.16834,-0.36167,-9.74934
23.69179,-0.16969,-0.36003,-9.764
23.70182,-0.15502,-0.35314,-9.76939
23.71186,-0.17193,-0.34417,-9.78375
23.72189,-0.17253,-0.35464,-9.75772
23.73193,-0.17747,-0.36197,-9.77418
23.74197,-0.16685,-0.3512,-9.76969
23.752,-0.17687,-0.35539,-9.75517
23.76204,-0.18031,-0.36497,-9.77403
23.77208,-0.1634,-0.3497,-9.78031
23.78211,-0.15802,-0.35928,-9.76415
23.79215,-0.18106,-0.35793,-9.75218
23.80219,-0.18705,-0.36123,-9.75892
23.81222,-0.17313,-0.35165,-9.77358
23.82226,-0.15787,-0.353,-9.7637
23.83229,-0.16879,-0.35748,-9.77642
23.84233,-0.18914,-0.35898,-9.78241
23.85237,-0.17448,-0.35733,-9.74784
23.8624,-0.17208,-0.36257,-9.75682
23.87244,-0.16774,-0.35539,-9.79692
23.88248,-0.16101,-0.33998,-9.78016
23.89251,-0.16535,-0.3521,-9.74709
23.90255,-0.18061,-0.36272,-9.74096
23.91259,-0.19064,-0.35898,-9.77313
23.92262,-0.17223,-0.35,-9.77852
23.93266,-0.1643,-0.35868,-9.77538
23.94269,-0.17463,-0.36302,-9.77762
23.95273,-0.17253,-0.3497,-9.75084
23.96277,-0.1649,-0.35569,-9.75906
23.9728,-0.16206,-0.35584,-9.7661
23.98284,-0.15832,-0.35778,-9.77972
23.99288,-0.167,-0.35943,-9.76535
24.00291,-0.17029,-0.35225,-9.77493
24.01295,-0.15712,-0.34521,-9.77912
24.02299,-0.17193,-0.35494,-9.74844
24.03302,-0.17059,-0.3509,-9.76744
24.04306,-0.16131,-0.36212,-9.78869
24.05309,-0.16759,-0.35314,-9.79318
24.06313,-0.17523,-0.35524,-9.73871
24.07317,-0.17134,-0.3527,-9.75338
24.0832,-0.15802,-0.35045,-9.78735
24.09324,-0.15502,-0.35629,-9.77193
24.10328,-0.18839,-0.35718,-9.75069
24.11331,-0.19812,-0.35674,-9.76969
24.12335,-0.16221,-0.35674,-9.77298
24.13339,-0.15517,-0.3509,-9.74874
24.14342,-0.17627,-0.36377,-9.75697
24.15346,-0.18361,-0.35868,-9.77089
24.1635,-0.1646,-0.35434,-9.75727
24.17353,-0.15458,-0.35255,-9.75712
24.18357,-0.17837,-0.36886,-9.78031
24.1936,-0.17942,-0.36018,-9.76176
24.20364,-0.16131,-0.35763,-9.77074
24.21368,-0.16685,-0.35763,-9.78361
24.22371,-0.18839,-0.35808,-9.78316
24.23375,-0.17582,-0.35958,-9.74156
24.24379,-0.16595,-0.36033,-9.764
24.25382,-0.14859,-0.34701,-9.79408
24.26386,-0.15892,-0.35868,-9.79139
24.2739,-0.17567,-0.34506,-9.74724
24.28393,-0.17702,-0.35015,-9.73258
24.29397,-0.17268,-0.34162,-9.76026
24.304,-0.1658,-0.35389,-9.78061
24.31404,-0.15892,-0.34701,-9.76759
24.32408,-0.16894,-0.34192,-9.76266
24.33411,-0.17942,-0.3515,-9.76176
24.34415,-0.16729,-0.35075,-9.7646
24.35419,-0.1634,-0.36407,-9.77986
24.36422,-0.17957,-0.35913,-9.75607
24.37426,-0.16879,-0.36257,-9.75637
24.38429,-0.16789,-0.35539,-9.75652
24.39433,-0.16909,-0.36003,-9.7658
24.40437,-0.17837,-0.34252,-9.75936
24.4144,-0.16969,-0.35449,-9.7661
24.42444,-0.1661,-0.35479,-9.77163
24.43448,-0.17134,-0.34551,-9.77074
24.44451,-0.17657,-0.35015,-9.74455
24.45455,-0.17657,-0.35599,-9.76969
24.46459,-0.16939,-0.35404,-9.77912
24.47462,-0.16026,-0.36212,-9.77627
24.48466,-0.16625,-0.35629,-9.76984
24.4947,-0.17971,-0.35389,-9.76759
24.50473,-0.17867,-0.3527,-9.75667
24.51477,-0.16625,-0.353,-9.75188
24.5248,-0.17044,-0.35404,-9.77313
24.53484,-0.17493,-0.34866,-9.78091
24.54488,-0.1667,-0.3503,-9.76161
24.55491,-0.17597,-0.35928,-9.76355
24.56495,-0.16071,-0.36197,-9.77508
24.57499,-0.15473,-0.35733,-9.75607
24.58502,-0.16146,-0.36646,-9.76685
24.59506,-0.17388,-0.35718,-9.767
24.60509,-0.1854,-0.34611,-9.76565
24.61513,-0.16969,-0.36661,-9.78705
24.62517,-0.17493,-0.34327,-9.75577
24.6352,-0.18196,-0.36227,-9.75562
24.64524,-0.16041,-0.35599,-9.77852
24.65528,-0.15712,-0.37305,-9.77582
24.66531,-0.1655,-0.37005,-9.76715
24.67535,-0.18046,-0.35733,-9.75323
24.68539,-0.17717,-0.33564,-9.76221
24.69542,-0.17612,-0.34506,-9.76041
24.70546,-0.18929,-0.35599,-9.76191
24.7155,-0.17912,-0.34312,-9.76206
24.72553,-0.16505,-0.35464,-9.76355
24.73557,-0.17104,-0.3509,-9.77552
24.7456,-0.16834,-0.35479,-9.75682
24.75564,-0.17418,-0.3521,-9.75622
24.76568,-0.16984,-0.35674,-9.7652
24.77571,-0.16864,-0.35404,-9.76804
24.78575,-0.1652,-0.35449,-9.77927
24.79579,-0.17523,-0.3521,-9.76146
24.80582,-0.17508,-0.35374,-9.75218
24.81586,-0.17717,-0.34252,-9.77882
24.8259,-0.17538,-0.34776,-9.77463
24.83593,-0.17328,-0.35569,-9.74096
24.84597,-0.17343,-0.35718,-9.75951
24.856,-0.15966,-0.35763,-9.77238
24.86604,-0.16385,-0.35674,-9.7649
24.87608,-0.17882,-0.35524,-9.75697
24.88611,-0.17238,-0.34506,-9.76535
24.89615,-0.16595,-0.34836,-9.76849
24.90619,-0.17418,-0.36167,-9.78001
24.91622,-0.16729,-0.35674,-9.75966
24.92626,-0.18974,-0.36467,-9.76759
24.9363,-0.16969,-0.35733,-9.76445
24.94633,-0.15293,-0.36437,-9.76774
24.95637,-0.17223,-0.35988,-9.77523
24.9664,-0.17612,-0.35988,-9.75188
24.97644,-0.17747,-0.35674,-9.75936
24.98648,-0.17942,-0.33743,-9.77837
24.99651,-0.16685,-0.34177,-9.77059
25.00655,-0.17163,-0.36003,-9.75787
25.01659,-0.17148,-0.35733,-9.75502
25.02662,-0.15996,-0.36137,-9.77074
25.03666,-0.17732,-0.372,-9.77418
25.04669,-0.16969,-0.36721,-9.76011
25.05673,-0.17029,-0.3503,-9.76131
25.06677,-0.17582,-0.35748,-9.75847
25.0768,-0.17104,-0.35808,-9.76355
25.08684,-0.16475,-0.35883,-9.77942
25.09688,-0.16939,-0.35,-9.78944
25.10691,-0.17687,-0.36781,-9.7637
25.11695,-0.18301,-0.36811,-9.73048
25.12698,-0.16744,-0.35539,-9.75862
25.13702,-0.15637,-0.36063,-9.79318
25.14706,-0.16161,-0.35958,-9.77927
25.15709,-0.17373,-0.36033,-9.75966
25.16713,-0.17717,-0.36302,-9.75143
25.17717,-0.17283,-0.34222,-9.77388
25.1872,-0.16595,-0.34866,-9.7652
25.19724,-0.17119,-0.36063,-9.77986
25.20728,-0.16131,-0.34297,-9.76984
25.21731,-0.16445,-0.35314,-9.75308
25.22735,-0.17493,-0.36467,-9.77059
25.23738,-0.16924,-0.35973,-9.77328
25.24742,-0.17627,-0.35329,-9.75577
25.25746,-0.1658,-0.36452,-9.75772
25.26749,-0.17822,-0.34641,-9.76101
25.27753,-0.17358,-0.34656,-9.76191
25.28757,-0.17807,-0.36197,-9.75398
25.2976,-0.16565,-0.3729,-9.78031
25.30764,-0.1634,-0.35135,-9.78241
25.31768,-0.16759,-0.35778,-9.75817
25.32771,-0.17792,-0.36467,-9.74635
25.33775,-0.16715,-0.36152,-9.77283
25.34778,-0.15308,-0.34372,-9.75877
25.35782,-0.15383,-0.35329,-9.75443
25.36786,-0.186,-0.35285,-9.78181
25.37789,-0.18166,-0.34671,-9.75592
25.38793,-0.17882,-0.34132,-9.75054
25.39797,-0.17418,-0.35853,-9.77792
25.408,-0.186,-0.34985,-9.75637
25.41804,-0.16924,-0.34372,-9.75069
25.42808,-0.16026,-0.35958,-9.77523
25.43811,-0.16281,-0.36212,-9.77567
25.44815,-0.17433,-0.35988,-9.76266
25.45818,-0.17538,-0.35449,-9.75293
25.46822,-0.19109,-0.3515,-9.78525
25.47826,-0.17313,-0.36242,-9.77104
25.48829,-0.17582,-0.35554,-9.74799
25.49833,-0.17313,-0.35913,-9.77328
25.50837,-0.17014,-0.3509,-9.77567
25.5184,-0.17328,-0.35449,-9.76475
25.52844,-0.18001,-0.35823,-9.75966
25.53848,-0.17523,-0.36661,-9.77672
25.54851,-0.1637,-0.36946,-9.75697
25.55855,-0.16355,-0.36242,-9.76116
25.56858,-0.17732,-0.36272,-9.77074
25.57862,-0.17597,-0.3521,-9.76954
25.58866,-0.16191,-0.34821,-9.77223
25.59869,-0.17104,-0.34387,-9.77313
25.60873,-0.17433,-0.34746,-9.7634
25.61877,-0.1655,-0.35988,-9.7447
25.6288,-0.17657,-0.35314,-9.75892
25.63884,-0.17074,-0.34222,-9.78361
25.64888,-0.17029,-0.3506,-9.78046
25.65891,-0.17882,-0.34282,-9.74664
25.66895,-0.17328,-0.34252,-9.76146
25.67898,-0.17747,-0.35614,-9.7637
25.68902,-0.17672,-0.36033,-9.77074
25.69906,-0.16759,-0.35135,-9.77762
25.70909,-0.17358,-0.36467,-9.76804
25.71913,-0.16939,-0.35344,-9.75188
25.72917,-0.17343,-0.34477,-9.76445
25.7392,-0.15532,-0.35644,-9.78929
25.74924,-0.17059,-0.34147,-9.77672
25.75927,-0.18495,-0.35524,-9.75233
25.76931,-0.16729,-0.34776,-9.75667
25.77935,-0.14739,-0.3521,-9.77328
25.78938,-0.16385,-0.36152,-9.76894
25.79942,-0.17657,-0.35539,-9.7634
25.80946,-0.17552,-0.35449,-9.78226
25.81949,-0.16804,-0.34806,-9.76116
25.82953,-0.16625,-0.34611,-9.75727
25.83957,-0.16535,-0.35554,-9.78376
25.8496,-0.18046,-0.35823,-9.78525
25.85964,-0.17478,-0.34716,-9.75607
25.86967,-0.17747,-0.33564,-9.76744
25.87971,-0.1875,-0.35479,-9.77178
25.88975,-0.17223,-0.36033,-9.7646
25.89978,-0.17717,-0.36467,-9.75847
25.90982,-0.17253,-0.35823,-9.79752
25.91986,-0.15757,-0.35988,-9.75487
25.92989,-0.17044,-0.34925,-9.7441
25.93993,-0.17343,-0.35359,-9.75652
25.94997,-0.17448,-0.36123,-9.76685
25.96,-0.17089,-0.36497,-9.77059
25.97004,-0.16924,-0.35045,-9.80366
25.98007,-0.16819,-0.34551,-9.77163
25.99011,-0.17493,-0.36347,-9.72944
26.00015,-0.18166,-0.35838,-9.7631
26.01018,-0.1426,-0.35434,-9.78495
26.02022,-0.15936,-0.35524,-9.77373
26.03026,-0.17867,-0.35928,-9.75323
26.04029,-0.1869,-0.36257,-9.77597
26.05033,-0.1646,-0.35808,-9.78405
26.06037,-0.15877,-0.37125,-9.75592
26.0704,-0.16909,-0.36108,-9.74949
26.08044,-0.17298,-0.35689,-9.77163
26.09047,-0.16266,-0.3515,-9.76475
26.10051,-0.16161,-0.35509,-9.767
26.11055,-0.18076,-0.36676,-9.76505
26.12058,-0.17433,-0.35105,-9.74275
26.13062,-0.15921,-0.35928,-9.764
26.14066,-0.14814,-0.34626,-9.78705
26.15069,-0.18196,-0.36721,-9.76625
26.16073,-0.19079,-0.34506,-9.73004
26.17076,-0.18001,-0.3503,-9.75338
26.1808,-0.15936,-0.34731,-9.78705
26.19084,-0.1631,-0.35599,-9.78809
26.20087,-0.1851,-0.3717,-9.73527
26.21091,-0.16804,-0.35509,-9.75158
26.22095,-0.15981,-0.35464,-9.77912
26.23098,-0.16026,-0.35045,-9.76954
26.24102,-0.16759,-0.36272,-9.767
26.25106,-0.18361,-0.3702,-9.76535
26.26109,-0.17508,-0.35763,-9.77627
26.27113,-0.15862,-0.35165,-9.77807
26.28116,-0.17612,-0.34611,-9.76535
26.2912,-0.18196,-0.35225,-9.74605
26.30124,-0.17523,-0.35778,-9.764
26.31127,-0.1634,-0.34701,-9.79139
26.32131,-0.17642,-0.3515,-9.77807
26.33135,-0.18765,-0.34925,-9.73572
26.34138,-0.1667,-0.36676,-9.76146
26.35142,-0.15323,-0.36751,-9.77837
26.36146,-0.16715,-0.36646,-9.78435
26.37149,-0.16999,-0.35853,-9.76011
26.38153,-0.18794,-0.34821,-9.73931
26.39156,-0.17104,-0.34716,-9.76939
26.4016,-0.16505,-0.34536,-9.78091
26.41164,-0.17657,-0.36661,-9.7649
26.42167,-0.18241,-0.33624,-9.76535
26.43171,-0.16939,-0.34925,-9.76131
26.44175,-0.15742,-0.35374,-9.76744
26.45178,-0.1655,-0.35509,-9.75652
26.46182,-0.17762,-0.35733,-9.74769
26.47186,-0.16954,-0.35644,-9.7667
26.48189,-0.14829,-0.34866,-9.80231
26.49193,-0.17238,-0.3512,-9.75742
26.50196,-0.186,-0.34297,-9.75113
26.512,-0.17373,-0.34282,-9.78016
26.52204,-0.15832,-0.34895,-9.77762
26.53207,-0.15652,-0.35689,-9.75996
26.54211,-0.18316,-0.36871,-9.75383
26.55215,-0.18495,-0.35135,-9.76191
26.56218,-0.16759,-0.34985,-9.76191
26.57222,-0.16071,-0.35853,-9.77897
26.58225,-0.16999,-0.36123,-9.78405
26.59229,-0.17927,-0.36137,-9.7438
26.60233,-0.16999,-0.35404,-9.75308
26.61236,-0.15966,-0.34671,-9.80306
26.6224,-0.17253,-0.35718,-9.78196
26.63244,-0.16924,-0.353,-9.75248
26.64247,-0.17403,-0.3521,-9.75098
26.65251,-0.16595,-0.36197,-9.77433
26.66255,-0.16296,-0.36586,-9.76086
26.67258,-0.1634,-0.35674,-9.75188
26.68262,-0.16759,-0.36422,-9.78091
26.69265,-0.17044,-0.3506,-9.78121
26.70269,-0.15143,-0.34806,-9.75682
26.71273,-0.15802,-0.353,-9.75906
26.72276,-0.1872,-0.35838,-9.7634
26.7328,-0.16206,-0.35359,-9.74694
26.74284,-0.14724,-0.35479,-9.78046
26.75287,-0.16879,-0.35015,-9.7842
26.76291,-0.17627,-0.36033,-9.75757
26.77295,-0.17732,-0.35389,-9.74575
26.78298,-0.15847,-0.36437,-9.78166
26.79302,-0.16879,-0.353,-9.78675
26.80305,-0.1661,-0.35015,-9.75203
26.81309,-0.17014,-0.35584,-9.74739
26.82313,-0.17268,-0.34192,-9.77223
26.83316,-0.16804,-0.34686,-9.76655
26.8432,-0.17268,-0.35509,-9.75727
26.85324,-0.17597,-0.35255,-9.76715
26.86327,-0.17119,-0.34327,-9.78001
26.87331,-0.15188,-0.36137,-9.76819
26.88334,-0.17523,-0.36467,-9.75907
26.89338,-0.17822,-0.35554,-9.74126
26.90342,-0.15996,-0.35838,-9.77942
26.91345,-0.15697,-0.35464,-9.79887
26.92349,-0.1643,-0.34821,-9.75906
26.93353,-0.17777,-0.36512,-9.73153
26.94356,-0.17119,-0.3732,-9.7667
26.9536,-0.16041,-0.34297,-9.79498
26.96364,-0.15906,-0.35314,-9.78226
26.97367,-0.17178,-0.35255,-9.74036
26.98371,-0.17193,-0.35943,-9.74859
26.99374,-0.15817,-0.35389,-9.77627
27.00378,-0.1453,-0.36272,-9.78181
27.01382,-0.17657,-0.35359,-9.77283
27.02385,-0.17897,-0.35584,-9.75607
27.03389,-0.16116,-0.35554,-9.75443
27.04393,-0.15158,-0.36676,-9.77433
27.05396,-0.17478,-0.35748,-9.78196
27.064,-0.17298,-0.36691,-9.75173
27.07404,-0.18286,-0.3512,-9.75503
27.08407,-0.15921,-0.36452,-9.78031
27.09411,-0.16206,-0.35524,-9.77133
27.10414,-0.18271,-0.36586,-9.74545
27.11418,-0.1646,-0.34866,-9.75742
27.12422,-0.16774,-0.34686,-9.77792
27.13425,-0.16281,-0.3509,-9.76954
27.14429,-0.17298,-0.36033,-9.75458
27.15432,-0.18974,-0.36033,-9.75188
27.16436,-0.1649,-0.35928,-9.77493
27.1744,-0.15622,-0.35689,-9.77792
27.18443,-0.16819,-0.36197,-9.75832
27.19447,-0.17448,-0.35449,-9.77104
27.20451,-0.16819,-0.35434,-9.76535
27.21454,-0.16281,-0.34177,-9.76071
27.22458,-0.16625,-0.35344,-9.7854
27.23462,-0.16924,-0.36018,-9.7673
27.24465,-0.15877,-0.34626,-9.74889
27.25469,-0.17552,-0.35748,-9.78361
27.26472,-0.16161,-0.35868,-9.78495
27.27476,-0.16296,-0.35359,-9.75233
27.2848,-0.17957,-0.3524,-9.73572
27.29483,-0.1637,-0.35419,-9.78241
27.30487,-0.16281,-0.34985,-9.78989
27.31491,-0.16849,-0.35569,-9.75517
27.32494,-0.18645,-0.36452,-9.74709
27.33498,-0.17373,-0.35479,-9.7664
27.34502,-0.15039,-0.35,-9.78809
27.35505,-0.16969,-0.34985,-9.76056
27.36509,-0.19842,-0.34761,-9.74934
27.37513,-0.18346,-0.35479,-9.74859
27.38516,-0.14141,-0.34641,-9.77762
27.3952,-0.16251,-0.34806,-9.76954
27.40523,-0.18271,-0.35644,-9.76101
27.41527,-0.18361,-0.35868,-9.7432
27.42531,-0.1652,-0.36841,-9.76655
27.43534,-0.17208,-0.36033,-9.75772
27.44538,-0.17582,-0.35823,-9.75637
27.45542,-0.17597,-0.36137,-9.767
27.46545,-0.15742,-0.34058,-9.77089
27.47549,-0.16864,-0.36302,-9.76445
27.48552,-0.18211,-0.35344,-9.75009
27.49556,-0.17867,-0.36167,-9.75009
27.5056,-0.15877,-0.34447,-9.7646
27.51563,-0.15368,-0.35524,-9.79632
27.52567,-0.17837,-0.35883,-9.79094
27.53571,-0.17837,-0.35045,-9.77163
27.54574,-0.17283,-0.34716,-9.75024
27.55578,-0.18256,-0.35853,-9.7652
27.56581,-0.18016,-0.35958,-9.7875
27.57585,-0.1655,-0.35389,-9.7643
27.58589,-0.16595,-0.35913,-9.75502
27.59592,-0.1848,-0.35464,-9.77313
27.60596,-0.17747,-0.3497,-9.77044
27.616,-0.17089,-0.34626,-9.75233
27.62603,-0.16774,-0.35464,-9.77104
27.63607,-0.16355,-0.35524,-9.7673
27.6461,-0.1646,-0.35255,-9.76221
27.65614,-0.17762,-0.35928,-9.76161
27.66618,-0.17657,-0.35464,-9.75921
27.67621,-0.16774,-0.35374,-9.75981
27.68625,-0.16565,-0.34162,-9.76879
27.69629,-0.16086,-0.34925,-9.7634
27.70632,-0.16715,-0.35045,-9.7667
27.71636,-0.17777,-0.36437,-9.75128
27.7264,-0.16759,-0.35674,-9.77268
27.73643,-0.17493,-0.35584,-9.77942
27.74647,-0.17792,-0.35913,-9.75458
27.7565,-0.18944,-0.35868,-9.76535
27.76654,-0.18794,-0.34626,-9.77298
27.77658,-0.15338,-0.35689,-9.77388
27.78661,-0.16325,-0.36093,-9.77149
27.79665,-0.18136,-0.35135,-9.79273
27.80669,-0.17493,-0.35509,-9.77897
27.81672,-0.1631,-0.35554,-9.7667
27.82676,-0.17493,-0.35359,-9.76954
27.83679,-0.17807,-0.35659,-9.76834
27.84683,-0.16655,-0.34866,-9.76475
27.85687,-0.1652,-0.34836,-9.74919
27.8669,-0.17044,-0.3515,-9.76071
27.87694,-0.17582,-0.35,-9.76475
27.88698,-0.17358,-0.35255,-9.73946
27.89701,-0.17642,-0.36242,-9.77283
27.90705,-0.17597,-0.34701,-9.79393
27.91709,-0.1655,-0.35434,-9.7646
27.92712,-0.17597,-0.35868,-9.75188
27.93716,-0.16595,-0.35599,-9.7652
27.9472,-0.1465,-0.35659,-9.77672
27.95723,-0.15772,-0.35479,-9.77747
27.96727,-0.17582,-0.3491,-9.75921
27.9773,-0.17567,-0.35524,-9.76086
27.98734,-0.16131,-0.35748,-9.76071
27.99738,-0.1655,-0.35285,-9.78226
28.00741,-0.15966,-0.34851,-9.77582
28.01745,-0.15981,-0.36182,-9.75323
28.02749,-0.1646,-0.35988,-9.75128
28.03752,-0.17463,-0.35943,-9.76311
28.04756,-0.15368,-0.35479,-9.77493
28.05759,-0.16685,-0.36257,-9.7637
28.06763,-0.17493,-0.36018,-9.7875
28.07767,-0.17089,-0.34791,-9.76595
28.0877,-0.17014,-0.37155,-9.75428
28.09774,-0.16715,-0.3524,-9.76445
28.10778,-0.17298,-0.3494,-9.77657
28.11781,-0.17223,-0.36422,-9.74395
28.12785,-0.16056,-0.35778,-9.75473
28.13789,-0.16026,-0.36631,-9.79064
28.14792,-0.16729,-0.35524,-9.77268
28.15796,-0.17193,-0.34432,-9.73782
28.16799,-0.16206,-0.36137,-9.77463
28.17803,-0.17463,-0.36272,-9.7649
28.18807,-0.16191,-0.35689,-9.74395
28.1981,-0.16999,-0.3723,-9.76744
28.20814,-0.17433,-0.34985,-9.77283
28.21818,-0.16849,-0.34806,-9.76116
28.22821,-0.17448,-0.3512,-9.77627
28.23825,-0.17178,-0.35314,-9.78046
28.24829,-0.17867,-0.35509,-9.76101
28.25832,-0.16744,-0.35255,-9.75278
28.26836,-0.16954,-0.35539,-9.78151
28.27839,-0.16625,-0.36452,-9.79288
28.28843,-0.17313,-0.36093,-9.73273
28.29847,-0.18375,-0.3503,-9.74141
28.3085,-0.17627,-0.35853,-9.79034
28.31854,-0.16535,-0.35389,-9.76625
28.32858,-0.16939,-0.36796,-9.73961
28.33861,-0.19288,-0.36137,-9.79617
28.34865,-0.17178,-0.34596,-9.79677
28.35868,-0.16505,-0.34611,-9.75547
28.36872,-0.17463,-0.36646,-9.75218
28.37876,-0.17448,-0.36227,-9.80351
28.38879,-0.15248,-0.35808,-9.77343
28.39883,-0.16086,-0.35838,-9.74814
28.40887,-0.17388,-0.35689,-9.77747
28.4189,-0.16625,-0.36182,-9.76625
28.42894,-0.15607,-0.34925,-9.74799
28.43898,-0.16505,-0.36901,-9.78271
28.44901,-0.18705,-0.35165,-9.786
28.45905,-0.16505,-0.35659,-9.76176
28.46908,-0.16445,-0.36332,-9.72899
28.47912,-0.18765,-0.35778,-9.76924
28.48916,-0.17163,-0.35883,-9.78016
28.49919,-0.15607,-0.35195,-9.75727
28.50923,-0.16894,-0.3524,-9.7652
28.51927,-0.18944,-0.35614,-9.77418
28.5293,-0.1866,-0.3524,-9.73348
28.53934,-0.17134,-0.34731,-9.74485
28.54937,-0.15742,-0.34387,-9.77986
28.55941,-0.17119,-0.36123,-9.78899
28.56945,-0.15667,-0.35329,-9.73423
28.57948,-0.16984,-0.3509,-9.75368
28.58952,-0.18256,-0.36482,-9.77059
28.59956,-0.1667,-0.35509,-9.77223
28.60959,-0.16445,-0.36347,-9.76206
28.61963,-0.17163,-0.353,-9.77133
28.62967,-0.17463,-0.36197,-9.7869
28.6397,-0.17657,-0.34895,-9.75712
28.64974,-0.18196,-0.34716,-9.72794
28.65977,-0.16954,-0.36093,-9.7655
28.66981,-0.16774,-0.35509,-9.77612
28.67985,-0.15577,-0.34491,-9.77762
28.68988,-0.17717,-0.35419,-9.74979
28.69992,-0.18316,-0.36527,-9.75607
28.70996,-0.17328,-0.35225,-9.77972
28.71999,-0.13871,-0.3506,-9.75772
28.73003,-0.17104,-0.35225,-9.76206
28.74006,-0.19438,-0.35449,-9.7637
28.7501,-0.16999,-0.36272,-9.75637
28.76014,-0.15143,-0.35748,-9.77807
28.77017,-0.17238,-0.35449,-9.77388
28.78021,-0.18555,-0.34387,-9.76625
28.79025,-0.17193,-0.34776,-9.75293
28.80028,-0.16221,-0.34566,-9.76969
28.81032,-0.17478,-0.3506,-9.77657
28.82036,-0.18465,-0.35778,-9.7658
28.83039,-0.17268,-0.35808,-9.76879
28.84043,-0.16161,-0.34626,-9.79513
28.85046,-0.18705,-0.35554,-9.78076
28.8605,-0.17268,-0.35344,-9.73662
28.87054,-0.15772,-0.36527,-9.77059
28.88057,-0.15368,-0.35539,-9.79857
28.89061,-0.1643,-0.35479,-9.75592
28.90065,-0.18765,-0.35344,-9.73438
28.91068,-0.17657,-0.35853,-9.7878
28.92072,-0.15323,-0.36048,-9.78435
28.93075,-0.17403,-0.36601,-9.73916
28.94079,-0.18151,-0.35404,-9.7652
28.95083,-0.17343,-0.34836,-9.79333
28.96086,-0.16251,-0.35195,-9.75652
28.9709,-0.17283,-0.35464,-9.74784
28.98094,-0.18166,-0.35464,-9.77732
28.99097,-0.15757,-0.35644,-9.77612
29.00101,-0.15443,-0.34297,-9.75817
29.01105,-0.17253,-0.35704,-9.75368
29.02108,-0.1842,-0.35419,-9.76206
29.03112,-0.15921,-0.35569,-9.73782
29.04115,-0.13393,-0.35434,-9.77148
29.05119,-0.17478,-0.3506,-9.79707
29.06123,-0.19438,-0.35868,-9.77717
29.07126,-0.17403,-0.34836,-9.7462
29.0813,-0.15921,-0.34177,-9.76056
29.09134,-0.17777,-0.34866,-9.78136
29.10137,-0.16984,-0.35644,-9.77268
29.11141,-0.16864,-0.36287,-9.75921
29.12144,-0.16385,-0.34252,-9.77133
29.13148,-0.18346,-0.35913,-9.76281
29.14152,-0.16924,-0.35449,-9.76565
29.15155,-0.16475,-0.34626,-9.76909
29.16159,-0.1655,-0.35644,-9.75143
29.17163,-0.17268,-0.35659,-9.76984
29.18166,-0.15532,-0.3518,-9.78226
29.1917,-0.16984,-0.35913,-9.75278
29.20173,-0.18914,-0.36527,-9.75697
29.21177,-0.18241,-0.36167,-9.76161
29.22181,-0.15383,-0.35748,-9.7851
29.23184,-0.1649,-0.35434,-9.75697
29.24188,-0.17986,-0.36975,-9.76281
29.25192,-0.17059,-0.36452,-9.76655
29.26195,-0.16879,-0.34207,-9.7643
29.27199,-0.15757,-0.34791,-9.7643
29.28203,-0.17448,-0.36212,-9.77283
29.29206,-0.16864,-0.35808,-9.74679
29.3021,-0.15622,-0.36048,-9.75188
29.31213,-0.16864,-0.35434,-9.77313
29.32217,-0.18241,-0.35853,-9.764
29.33221,-0.16744,-0.35853,-9.75084
29.34224,-0.17238,-0.35973,-9.76924
29.35228,-0.16026,-0.35763,-9.79228
29.36232,-0.16056,-0.35958,-9.76221
29.37235,-0.18061,-0.33773,-9.74051
29.38239,-0.1851,-0.35,-9.7634
29.39242,-0.17552,-0.36152,-9.78256
29.40246,-0.15562,-0.34701,-9.74515
29.4125,-0.17223,-0.36407,-9.75787
29.42253,-0.17986,-0.35389,-9.77358
29.43257,-0.15981,-0.34147,-9.75862
29.44261,-0.17148,-0.35674,-9.76026
29.45264,-0.18061,-0.35763,-9.78331
29.46268,-0.17089,-0.35494,-9.76161
29.47272,-0.1459,-0.36646,-9.74455
29.48275,-0.16266,-0.35793,-9.78944
29.49279,-0.18211,-0.35479,-9.78256
29.50282,-0.16834,-0.35344,-9.74919
29.51286,-0.16116,-0.35883,-9.75293
29.5229,-0.16595,-0.35539,-9.79154
29.53293,-0.1646,-0.36706,-9.75772
29.54297,-0.17702,-0.36482,-9.7429
29.55301,-0.16894,-0.3491,-9.77642
29.56304,-0.16909,-0.34656,-9.78241
29.57308,-0.16266,-0.35404,-9.74246
29.58311,-0.18121,-0.36048,-9.74455
29.59315,-0.17148,-0.35659,-9.76969
29.60319,-0.1637,-0.3521,-9.78331
29.61322,-0.15622,-0.35075,-9.77059
29.62326,-0.17657,-0.36482,-9.76176
29.6333,-0.18974,-0.34177,-9.75338
29.64333,-0.1637,-0.35165,-9.77148
29.65337,-0.16011,-0.34955,-9.77612
29.6634,-0.17657,-0.35973,-9.78166
29.67344,-0.18361,-0.35913,-9.7435
29.68348,-0.16789,-0.35329,-9.75547
29.69351,-0.17163,-0.35165,-9.78166
29.70355,-0.17074,-0.35733,-9.7878
29.71359,-0.17238,-0.3512,-9.7658
29.72362,-0.17268,-0.3521,-9.74171
29.73366,-0.17268,-0.35928,-9.76879
29.7437,-0.16251,-0.35733,-9.77552
29.75373,-0.15951,-0.35195,-9.76849
29.76377,-0.16864,-0.36586,-9.7634
29.7738,-0.17478,-0.35255,-9.76505
29.78384,-0.17418,-0.34881,-9.76969
29.79388,-0.16954,-0.35255,-9.76086
29.80391,-0.17957,-0.35659,-9.76894
29.81395,-0.164,-0.35659,-9.77373
29.82399,-0.16101,-0.34761,-9.7857
29.83402,-0.17358,-0.3491,-9.77568
29.84406,-0.17328,-0.34656,-9.7426
29.85409,-0.17044,-0.3705,-9.7233
29.86413,-0.17119,-0.36646,-9.76759
29.87417,-0.1462,-0.33998,-9.86231
29.8842,-0.14275,-0.35344,-9.77762
29.89424,-0.20261,-0.36227,-9.6615
29.90428,-0.20261,-0.34881,-9.77702
29.91431,-0.12644,-0.34611,-9.85214
29.92435,-0.13497,-0.36302,-9.745
29.93439,-0.20485,-0.36078,-9.70684
29.94442,-0.21024,-0.35958,-9.79094
29.95446,-0.12944,-0.32696,-9.79977
29.96449,-0.13183,-0.3494,-9.76954
29.97453,-0.21234,-0.37439,-9.76655
29.98457,-0.20261,-0.35689,-9.74754
29.9946,-0.12001,-0.35389,-9.76744
30.00464,-0.13378,-0.36497,-9.7854
30.01468,-0.19019,-0.37365,-9.77283
30.02471,-0.20186,-0.35479,-9.72719
30.03475,-0.14545,-0.33788,-9.77418
30.04478,-0.13018,-0.35404,-9.82251
30.05482,-0.19588,-0.36676,-9.76475
30.06486,-0.20096,-0.36706,-9.71253
30.07489,-0.1634,-0.35599,-9.78286
30.08493,-0.15577,-0.3494,-9.82595
30.09497,-0.15263,-0.36123,-9.76849
30.105,-0.18675,-0.36512,-9.72659
30.11504,-0.18316,-0.3518,-9.7634
30.12507,-0.1438,-0.34117,-9.77597
30.13511,-0.15847,-0.35674,-9.76041
30.14515,-0.17478,-0.35359,-9.76849
30.15518,-0.16325,-0.35045,-9.77343
30.16522,-0.14889,-0.3497,-9.76804
30.17526,-0.17567,-0.34222,-9.7661
30.18529,-0.18854,-0.37409,-9.7637
30.19533,-0.18241,-0.36601,-9.74934
30.20537,-0.1465,-0.35135,-9.78001
30.2154,-0.15592,-0.34955,-9.77672
30.22544,-0.17612,-0.35793,-9.77283
30.23547,-0.18361,-0.37095,-9.73393
30.24551,-0.17403,-0.35285,-9.75907
30.25555,-0.16864,-0.34746,-9.7866
30.26558,-0.18196,-0.35255,-9.77523
30.27562,-0.17538,-0.34327,-9.74784
30.28566,-0.18016,-0.35793,-9.76086
30.29569,-0.15981,-0.34806,-9.79348
30.30573,-0.1664,-0.37379,-9.77149
30.31576,-0.17104,-0.36108,-9.75966
30.3258,-0.17582,-0.36033,-9.76565
30.33584,-0.17358,-0.34791,-9.79588
30.34587,-0.17927,-0.35479,-9.76311
30.35591,-0.18001,-0.35898,-9.7459
30.36595,-0.18585,-0.36182,-9.77957
30.37598,-0.15892,-0.34207,-9.74485
30.38602,-0.1453,-0.37754,-9.7257
30.39605,-0.18944,-0.35838,-9.84107
30.40609,-0.14066,-0.33055,-9.89194
30.41613,-0.15742,-0.34731,-9.62469
30.42616,-0.24885,-0.36242,-9.61631
30.4362,-0.17627,-0.36452,-9.94267
30.44624,-0.07048,-0.33399,-9.92097
30.45627,-0.15502,-0.36901,-9.5783
30.46631,-0.30272,-0.37724,-9.65731
30.47635,-0.21653,-0.33489,-9.9099
30.48638,-0.01751,-0.32875,-9.82655
30.49642,-0.12884,-0.37888,-9.69023
30.50645,-0.31244,-0.3735,-9.73378
30.51649,-0.19588,-0.34207,-9.79543
30.52653,-0.02215,-0.33818,-9.77553
30.53656,-0.12674,-0.34866,-9.80156
30.5466,-0.28671,-0.38128,-9.73303
30.55664,-0.20845,-0.35419,-9.68649
30.56667,-0.04205,-0.33115,-9.83059
30.57671,-0.13348,-0.35494,-9.89404
30.58674,-0.27399,-0.36916,-9.6603
30.59678,-0.21638,-0.36003,-9.65222
30.60682,-0.09652,-0.33893,-9.89224
30.61685,-0.10834,-0.33698,-9.85139
30.62689,-0.2264,-0.37185,-9.62454
30.63693,-0.22865,-0.36482,-9.70041
30.64696,-0.11866,-0.34417,-9.89075
30.657,-0.08814,-0.35509,-9.80411
30.66703,-0.21787,-0.35808,-9.68006
30.67707,-0.23972,-0.35689,-9.72465
30.68711,-0.12929,-0.34132,-9.81742
30.69714,-0.09307,-0.35359,-9.78121
30.70718,-0.1842,-0.36975,-9.76161
30.71722,-0.23538,-0.36212,-9.75173
30.72725,-0.15098,-0.3518,-9.71717
30.73729,-0.10071,-0.36063,-9.7848
30.74733,-0.17837,-0.34955,-9.80889
30.75736,-0.21368,-0.3723,-9.73512
30.7674,-0.17268,-0.35554,-9.71777
30.77743,-0.12959,-0.35105,-9.79737
30.78747,-0.17148,-0.35793,-9.81159
30.79751,-0.19603,-0.37574,-9.71358
30.80754,-0.15862,-0.37215,-9.7438
30.81758,-0.13692,-0.35509,-9.82865
30.82762,-0.16116,-0.33923,-9.8056
30.83765,-0.18794,-0.36302,-9.71986
30.84769,-0.18241,-0.36631,-9.72151
30.85772,-0.16146,-0.35195,-9.80665
30.86776,-0.14724,-0.3524,-9.8068
30.8778,-0.17642,-0.36242,-9.74635
30.88783,-0.20321,-0.35838,-9.73258
30.89787,-0.17178,-0.35659,-9.77867
30.90791,-0.15757,-0.35509,-9.8083
30.91794,-0.15951,-0.36227,-9.72375
30.92798,-0.18166,-0.35075,-9.71522
30.93801,-0.18136,-0.36751,-9.77089
30.94805,-0.13991,-0.32845,-9.9913
30.95809,-0.09861,-0.34746,-9.7444
30.96812,-0.25678,-0.38068,-9.43914
30.97816,-0.27952,-0.35599,-9.80351
30.9882,-0.03038,-0.34462,-10.13361
30.99823,-0.02439,-0.34731,-9.7435
31.00827,-0.36033,-0.35793,-9.79573
31.01831,-0.36033,-0.35793,-9.79573
31.02834,-0.05162,-0.30541,-10.00851
31.03838,0.05537,-0.34432,-9.79662
31.04841,-0.27728,-0.40013,-9.61691
31.05845,-0.40193,-0.37469,-9.70116
31.06849,-0.06764,-0.32591,-9.82775
31.07852,0.03831,-0.32546,-9.84615
31.08856,-0.25438,-0.36811,-9.79004
31.0986,-0.35389,-0.3907,-9.62918
31.10863,-0.11747,-0.34043,-9.73467
31.11867,0.00554,-0.32441,-9.92456
31.1287,-0.2056,-0.35524,-9.81413
31.13874,-0.31783,-0.37335,-9.54927
31.14878,-0.15308,-0.35853,-9.75772
31.15881,-0.04459,-0.32995,-9.94761
31.16885,-0.15742,-0.35748,-9.75308
31.17889,-0.26635,-0.40223,-9.59057
31.18892,-0.20515,-0.34746,-9.77867
31.19896,-0.07257,-0.34357,-9.91663
31.20899,-0.12106,-0.35958,-9.76954
31.21903,-0.26995,-0.37529,-9.66524
31.22907,-0.22386,-0.35614,-9.73183
31.2391,-0.07991,-0.34207,-9.85573
31.24914,-0.1037,-0.36497,-9.77882
31.25918,-0.2496,-0.36736,-9.75323
31.26921,-0.24406,-0.35689,-9.71776
31.27925,-0.11058,-0.33773,-9.78929
31.28929,-0.104,-0.3515,-9.78495
31.29932,-0.24196,-0.38382,-9.79318
31.30936,-0.21712,-0.36901,-9.7049
31.31939,-0.11747,-0.35075,-9.764
31.32943,-0.12016,-0.33653,-9.79588
31.33947,-0.20665,-0.35823,-9.79258
31.3495,-0.21668,-0.37739,-9.71552
31.35954,-0.14694,-0.35883,-9.75697
31.36957,-0.13797,-0.34297,-9.81263
31.37961,-0.1869,-0.35973,-9.78271
31.38965,-0.18166,-0.3717,-9.71836
31.39968,-0.15817,-0.34761,-9.72166
31.40972,-0.15458,-0.34985,-9.81458
31.41976,-0.17612,-0.3497,-9.75443
31.42979,-0.18435,-0.35569,-9.78884
31.43983,-0.16535,-0.36377,-9.79962
31.44987,-0.15906,-0.34746,-9.82341
31.4599,-0.18794,-0.35898,-9.67617
31.46994,-0.20545,-0.35958,-9.68903
31.47997,-0.15098,-0.34387,-9.7878
31.49001,-0.12674,-0.33803,-9.89868
31.50005,-0.13782,-0.35838,-9.73662
31.51008,-0.23014,-0.3521,-9.68889
31.52012,-0.20725,-0.3497,-9.76505
31.53016,-0.12151,-0.34058,-9.85169
31.54019,-0.12585,-0.36646,-9.77089
31.55023,-0.20949,-0.39504,-9.72285
31.56026,-0.20889,-0.36751,-9.71747
31.5703,-0.14186,-0.35,-9.7842
31.58034,-0.1218,-0.34372,-9.82431
31.59037,-0.19393,-0.37394,-9.76505
31.60041,-0.21668,-0.36093,-9.73258
31.61045,-0.15278,-0.35464,-9.76056
31.62048,-0.12375,-0.35853,-9.82491
31.63052,-0.16939,-0.36152,-9.74126
31.64056,-0.21832,-0.36631,-9.73452
31.65059,-0.1667,-0.34836,-9.77717
31.66063,-0.14365,-0.34132,-9.82835
31.67066,-0.1652,-0.35838,-9.73647
31.6807,-0.19767,-0.37604,-9.73452
31.69074,-0.17687,-0.37335,-9.75862
31.70077,-0.13841,-0.34836,-9.79782
31.71081,-0.167,-0.36616,-9.76789
31.72085,-0.20366,-0.36901,-9.75398
31.73088,-0.18091,-0.34506,-9.74994
31.74092,-0.15562,-0.36317,-9.78974
31.75095,-0.15368,-0.36108,-9.79498
31.76099,-0.18211,-0.34806,-9.74919
31.77103,-0.17687,-0.36826,-9.73378
31.78106,-0.14605,-0.35823,-9.76969
31.7911,-0.15293,-0.35389,-9.81084
31.80114,-0.18944,-0.36197,-9.73946
31.81117,-0.19647,-0.34985,-9.73572
31.82121,-0.16625,-0.35225,-9.78061
31.83124,-0.15757,-0.34806,-9.808
31.84128,-0.15966,-0.37005,-9.72734
31.85132,-0.18884,-0.37125,-9.75098
31.86135,-0.14889,-0.36108,-9.77852
31.87139,-0.1432,-0.34925,-9.77792
31.88143,-0.17582,-0.35464,-9.7444
31.89146,-0.19782,-0.36257,-9.76565
31.9015,-0.15772,-0.35748,-9.76655
31.91153,-0.14754,-0.36542,-9.79228
31.92157,-0.17493,-0.36272,-9.75892
31.93161,-0.2065,-0.36796,-9.72914
31.94164,-0.17074,-0.34776,-9.75787
31.95168,-0.12674,-0.36197,-9.80156
31.96172,-0.1667,-0.36646,-9.76206
31.97175,-0.2047,-0.3717,-9.71582
31.98179,-0.18361,-0.36108,-9.78136
31.99183,-0.13228,-0.35075,-9.81308
32.00186,-0.15951,-0.35793,-9.76206
32.0119,-0.19034,-0.36332,-9.71941
32.02193,-0.19199,-0.353,-9.77358
32.03197,-0.14275,-0.34776,-9.77582
32.04201,-0.15951,-0.36497,-9.7462
32.05204,-0.19812,-0.36781,-9.74679
32.06208,-0.16595,-0.36317,-9.77119
32.07212,-0.14694,-0.35748,-9.75517
32.08215,-0.14694,-0.35569,-9.80336
32.09219,-0.18046,-0.35793,-9.83733
32.10222,-0.17971,-0.35434,-9.79393
32.11226,-0.14664,-0.36916,-9.71058
32.1223,-0.19588,-0.36931,-9.70056
32.13233,-0.17852,-0.38083,-9.75787
32.14237,-0.13512,-0.36332,-9.78675
32.15241,-0.14335,-0.34372,-9.7875
32.16244,-0.17238,-0.34072,-9.80022
32.17248,-0.20455,-0.34207,-9.7667
32.18251,-0.17358,-0.33968,-9.75083
32.19255,-0.15188,-0.3524,-9.77163
32.20259,-0.16819,-0.3732,-9.75547
32.21262,-0.17014,-0.36497,-9.75487
32.22266,-0.1459,-0.36616,-9.75981
32.2327,-0.16999,-0.35539,-9.78091
32.24273,-0.1878,-0.33818,-9.77163
32.25277,-0.1839,-0.33953,-9.77463
32.2628,-0.16056,-0.36078,-9.7643
32.27284,-0.1652,-0.35763,-9.7655
32.28288,-0.16729,-0.35883,-9.7667
32.29291,-0.15981,-0.3527,-9.78256
32.30295,-0.1652,-0.33863,-9.75637
32.31299,-0.16565,-0.34955,-9.75682
32.32302,-0.17134,-0.35285,-9.77478
32.33306,-0.15892,-0.35509,-9.76206
32.34309,-0.16206,-0.38322,-9.76281
32.35313,-0.16625,-0.37634,-9.77792
32.36317,-0.17762,-0.35614,-9.78465
32.3732,-0.17134,-0.35689,-9.76685
32.38324,-0.17927,-0.35479,-9.75742
32.39328,-0.18361,-0.35344,-9.75039
32.40331,-0.17552,-0.35853,-9.76879
32.41335,-0.14949,-0.35314,-9.77298
32.42339,-0.14994,-0.35554,-9.79273
32.43342,-0.16281,-0.35629,-9.764
32.44346,-0.17508,-0.34013,-9.7667
32.45349,-0.16969,-0.34462,-9.76535
32.46353,-0.16939,-0.36512,-9.77597
32.47357,-0.15817,-0.35644,-9.78031
32.4836,-0.16415,-0.34596,-9.77148
32.49364,-0.1658,-0.36437,-9.78391
32.50368,-0.16715,-0.34985,-9.77388
32.51371,-0.17223,-0.35165,-9.75637
32.52375,-0.16894,-0.35853,-9.74739
32.53378,-0.17642,-0.35958,-9.74231
32.54382,-0.14799,-0.37005,-9.75098
32.55386,-0.16296,-0.34596,-9.77119
32.56389,-0.1649,-0.34716,-9.79842
32.57393,-0.17552,-0.34491,-9.79124
32.58397,-0.16849,-0.35165,-9.76131
32.594,-0.18809,-0.36916,-9.72555
32.60404,-0.19094,-0.37035,-9.71298
32.61407,-0.16071,-0.36437,-9.74051
32.62411,-0.15458,-0.35509,-9.76296
32.63415,-0.17074,-0.34087,-9.7878
32.64418,-0.16744,-0.34776,-9.80336
32.65422,-0.16744,-0.34761,-9.81069
32.66426,-0.15577,-0.34806,-9.77448
32.67429,-0.18091,-0.36063,-9.71058
32.68433,-0.20755,-0.3723,-9.7236
32.69437,-0.14889,-0.38337,-9.81593
32.7044,-0.13153,-0.36676,-9.83403
32.71444,-0.18151,-0.36167,-9.74994
32.72448,-0.21697,-0.33998,-9.73452
32.73451,-0.19647,-0.34147,-9.76041
32.74455,-0.13557,-0.34282,-9.79647
32.75458,-0.14365,-0.36018,-9.77672
32.76462,-0.18226,-0.36362,-9.73677
32.77466,-0.164,-0.35404,-9.76326
32.78469,-0.15083,-0.34701,-9.78166
32.79473,-0.17942,-0.36796,-9.77912
32.80476,-0.19468,-0.36317,-9.74126
32.8148,-0.18106,-0.36197,-9.73916
32.82484,-0.15712,-0.36242,-9.80815
32.83487,-0.13916,-0.36287,-9.8065
32.84491,-0.18061,-0.35898,-9.7441
32.85495,-0.17627,-0.34596,-9.74335
32.86498,-0.15862,-0.34611,-9.7667
32.87502,-0.15502,-0.34641,-9.76655
32.88506,-0.15936,-0.36347,-9.73363
32.89509,-0.17552,-0.36093,-9.75697
32.90513,-0.17178,-0.36302,-9.79363
32.91516,-0.16026,-0.35045,-9.76655
32.9252,-0.1872,-0.35285,-9.74844
32.93524,-0.18989,-0.36467,-9.76086
32.94527,-0.16759,-0.35494,-9.76715
32.95531,-0.14186,-0.34716,-9.78241
32.96535,-0.16819,-0.34462,-9.78944
32.97538,-0.17927,-0.3524,-9.75682
32.98542,-0.17223,-0.36377,-9.74859
32.99545,-0.15502,-0.36182,-9.76969
33.00549,-0.1646,-0.36108,-9.7839
33.01553,-0.18316,-0.36556,-9.74709
33.02556,-0.1845,-0.3524,-9.75577
33.0356,-0.17448,-0.34806,-9.70475
33.04564,-0.17912,-0.34551,-9.68784
33.05567,-0.14994,-0.36796,-9.89808
33.06571,-0.13647,-0.35225,-9.98203
33.07574,-0.09906,-0.35329,-9.79049
33.08578,-0.23733,-0.38786,-9.4571
33.09582,-0.31484,-0.34207,-9.63816
33.10585,-0.06165,-0.39474,-9.90346
33.11589,-0.04938,-0.33384,-9.96467
33.12593,-0.18271,-0.3696,-9.80111
33.13596,-0.29748,-0.34536,-9.69263
33.146,-0.2267,-0.31603,-9.6609
33.15604,-0.07961,-0.3527,-9.77612
33.16607,-0.13437,-0.37649,-9.86217
33.17611,-0.19842,-0.37365,-9.71747
33.18615,-0.15936,-0.37155,-9.78286
33.19618,-0.13752,-0.33309,-9.77208
33.20622,-0.17508,-0.31648,-9.81847
33.21625,-0.20635,-0.36033,-9.6826
33.22629,-0.22685,-0.35763,-9.67931
33.23633,-0.13004,-0.35778,-9.85319
33.24636,-0.11283,-0.37634,-9.84885
33.2564,-0.19019,-0.33968,-9.71821
33.26644,-0.2255,-0.36257,-9.7031
33.27647,-0.19213,-0.34162,-9.80276
33.28651,-0.12659,-0.34252,-9.76834
33.29654,-0.1664,-0.38083,-9.764
33.30658,-0.19827,-0.37499,-9.73886
33.31662,-0.15817,-0.35434,-9.79273
33.32665,-0.12929,-0.36212,-9.75802
33.33669,-0.19064,-0.34372,-9.78705
33.34673,-0.19303,-0.35524,-9.76326
33.35676,-0.17732,-0.36078,-9.73527
33.3668,-0.14799,-0.36736,-9.75398
33.37683,-0.15592,-0.37918,-9.82625
33.38687,-0.18675,-0.35823,-9.77044
33.39691,-0.17493,-0.35135,-9.73228
33.40694,-0.16475,-0.34551,-9.79124
33.41698,-0.17927,-0.3527,-9.78959
33.42702,-0.18181,-0.3732,-9.75158
33.43705,-0.17163,-0.36422,-9.75562
33.44709,-0.15966,-0.34895,-9.79887
33.45713,-0.16176,-0.34147,-9.76296
33.46716,-0.19543,-0.33803,-9.74126
33.4772,-0.16834,-0.35988,-9.78016
33.48723,-0.1643,-0.36317,-9.75293
33.49727,-0.16969,-0.36182,-9.73303
33.50731,-0.18226,-0.35838,-9.79453
33.51734,-0.16685,-0.34282,-9.80336
33.52738,-0.17208,-0.34806,-9.73991
33.53742,-0.17897,-0.35704,-9.74395
33.54745,-0.17762,-0.37424,-9.78495
33.55749,-0.15158,-0.37095,-9.77657
33.56752,-0.15473,-0.35943,-9.76266
33.57756,-0.20081,-0.34342,-9.78391
33.5876,-0.18585,-0.34043,-9.76056
33.59763,-0.15547,-0.34791,-9.75862
33.60767,-0.15817,-0.36123,-9.78241
33.61771,-0.17508,-0.36826,-9.79842
33.62774,-0.16969,-0.36362,-9.72345
33.63778,-0.16086,-0.3524,-9.72854
33.64781,-0.16191,-0.35928,-9.77014
33.65785,-0.18301,-0.34866,-9.77642
33.66789,-0.17029,-0.34955,-9.75039
33.67792,-0.17957,-0.35674,-9.76849
33.68796,-0.16011,-0.36078,-9.79169
33.698,-0.17328,-0.35778,-9.76789
33.70803,-0.17986,-0.353,-9.75488
33.71807,-0.16834,-0.35584,-9.77986
33.7281,-0.15996,-0.35225,-9.77822
33.73814,-0.16191,-0.35584,-9.74201
33.74818,-0.16789,-0.36796,-9.76595
33.75821,-0.15757,-0.36467,-9.77448
33.76825,-0.17268,-0.3509,-9.75398
33.77829,-0.1643,-0.34192,-9.77807
33.78832,-0.18046,-0.34851,-9.78989
33.79836,-0.17672,-0.35255,-9.73063
33.8084,-0.15951,-0.36571,-9.75143
33.81843,-0.15413,-0.36257,-9.786
33.82847,-0.16655,-0.36542,-9.7851
33.8385,-0.1667,-0.35644,-9.74156
33.84854,-0.18555,-0.34432,-9.76041
33.85858,-0.17178,-0.34776,-9.79139
33.86861,-0.15368,-0.35255,-9.76685
33.87865,-0.16879,-0.3711,-9.74814
33.88869,-0.17538,-0.36332,-9.74949
33.89872,-0.16804,-0.35868,-9.77208
33.90876,-0.1646,-0.36108,-9.78136
33.91879,-0.17163,-0.34836,-9.77762
33.92883,-0.18256,-0.35793,-9.74485
33.93887,-0.17597,-0.36482,-9.75607
33.9489,-0.1432,-0.36362,-9.79423
33.95894,-0.16191,-0.35778,-9.7664
33.96898,-0.19258,-0.34447,-9.73273
33.97901,-0.17597,-0.34491,-9.76176
33.98905,-0.15862,-0.35105,-9.79558
33.99908,-0.15502,-0.35659,-9.78076
34.00912,-0.17343,-0.37365,-9.75921
34.01916,-0.17163,-0.38666,-9.75562
34.02919,-0.14485,-0.35,-9.75787
34.03923,-0.15502,-0.35464,-9.77717
34.04927,-0.18675,-0.34596,-9.77074
34.0593,-0.1851,-0.3491,-9.75862
34.06934,-0.16715,-0.3506,-9.75996
34.07938,-0.1655,-0.36467,-9.7854
34.08941,-0.1661,-0.35838,-9.76625
34.09945,-0.17567,-0.36886,-9.72196
34.10948,-0.17388,-0.35165,-9.74994
34.11952,-0.15203,-0.34491,-9.79827
34.12956,-0.15338,-0.37035,-9.77388
34.13959,-0.18331,-0.36152,-9.73243
34.14963,-0.17942,-0.36392,-9.77657
34.15966,-0.17089,-0.35165,-9.7875
34.1697,-0.16146,-0.33205,-9.77014
34.17974,-0.17597,-0.35479,-9.76744
34.18977,-0.18465,-0.35718,-9.75622
