t,ax,ay,az
0.0,1.38265,-7.69661,-5.53061
0.01004,1.38265,-7.69661,-5.53061
0.02007,1.3231,-7.8054,-5.66752
0.03011,1.05734,-8.08627,-5.83916
0.04015,0.64494,-8.37222,-6.11165
0.05018,0.23418,-8.46126,-6.4015
0.06022,-0.06913,-8.31057,-6.58001
0.07026,-0.13063,-7.95204,-6.66276
0.08029,0.00464,-7.45539,-6.7099
0.09033,0.21383,-7.13532,-6.73474
0.10037,0.41061,-7.18021,-6.90144
0.1104,0.4121,-7.40661,-7.07606
0.12044,0.18435,-7.64109,-7.0608
0.13048,-0.07961,-7.78968,-6.89949
0.14051,-0.42961,-7.8461,-6.63284
0.15055,-0.68983,-7.71442,-6.33117
0.16059,-0.74475,-7.58483,-6.10746
0.17062,-0.95244,-7.42352,-5.6771
0.18066,-1.23885,-7.59037,-5.72259
0.1907,-1.59768,-8.30384,-6.4814
0.20073,-2.09582,-8.88982,-6.97551
0.21077,-2.50987,-8.96673,-6.79908
0.2208,-2.7686,-8.67449,-6.30633
0.23084,-2.9332,-8.29262,-5.5538
0.24088,-3.0348,-7.96222,-5.00628
0.25091,-2.96327,-7.75886,-5.56697
0.26095,-2.94861,-7.88874,-4.52594
0.27099,-2.57885,-8.19505,-3.62886
0.28102,-2.38552,-8.65354,-4.93071
0.29106,-2.75707,-9.06011,-6.43756
0.3011,-3.07834,-9.17443,-7.79821
0.31113,-3.43418,-8.94189,-9.19164
0.32117,-3.57783,-8.41397,-10.50635
0.33121,-3.3025,-7.73641,-11.00076
0.34124,-2.72685,-7.2676,-11.1067
0.35128,-2.10465,-6.9996,-10.571
0.36132,-1.7768,-6.98478,-9.95255
0.37135,-1.70707,-7.15432,-9.50184
0.38139,-1.68253,-7.40392,-10.06612
0.39143,-1.64871,-7.35244,-11.59796
0.40146,-1.53902,-6.25111,-12.09536
0.4115,-1.15969,-4.58684,-10.97308
0.42154,-0.40432,-3.30175,-9.32227
0.43157,0.43694,-2.85179,-7.60503
0.44161,1.11136,-3.29502,-6.16612
0.45164,1.28628,-4.50738,-5.25916
0.46168,1.00123,-5.93732,-5.33967
0.47172,-0.0639,-6.40733,-6.03698
0.48175,-0.92222,-5.9876,-7.00723
0.49179,-0.2472,-5.96695,-7.24575
0.50183,0.44727,-5.66004,-6.93196
0.51186,0.23867,-5.55993,-6.29884
0.5219,0.42557,-5.79487,-5.99852
0.53194,0.01556,-5.54258,-5.42571
0.54197,0.00673,-4.56125,-4.19599
0.55201,0.93179,-4.58894,-4.28427
0.56205,2.42129,-4.69443,-4.94298
0.57208,3.59789,-4.30837,-5.36511
0.58212,5.26066,-4.19015,-6.23046
0.59216,8.98005,-4.76745,-6.91071
0.60219,11.7455,-5.6373,-5.8426
0.61223,9.87683,-4.42284,-3.77057
0.62227,6.5854,-2.74824,-3.07326
0.6323,5.27233,-2.83952,-4.40877
0.64234,4.07448,-3.76129,-6.93106
0.65237,2.57855,-4.90796,-9.17308
0.66241,1.53109,-6.04296,-9.11278
0.67245,0.96337,-6.8769,-7.55535
0.68248,1.01933,-6.94304,-6.4211
0.69252,1.54695,-6.54994,-6.50056
0.70256,2.04764,-6.82542,-6.62356
0.71259,1.98195,-7.26999,-7.36247
0.72263,1.58855,-7.50193,-7.41843
0.73267,1.16852,-7.81258,-7.38132
0.7427,0.86461,-8.05454,-7.09641
0.75274,0.8881,-7.90476,-6.14352
0.76278,1.20054,-7.71531,-5.26111
0.77281,1.72427,-7.61446,-3.97258
0.78285,2.05303,-8.2371,-2.54204
0.79289,1.39732,-9.18595,-3.45004
0.80292,0.3301,-9.73976,-5.3063
0.81296,-0.35868,-10.31527,-6.86208
0.823,-0.48243,-10.23776,-7.14744
0.83303,0.11268,-9.03691,-5.83497
0.84307,1.30664,-7.34017,-4.66405
0.85311,3.05799,-6.93226,-4.28592
0.86314,3.05799,-6.93226,-4.28592
0.87318,2.72954,-8.99771,-5.31513
0.88322,1.61998,-10.79246,-6.48155
0.89325,0.8447,-11.63687,-8.19401
0.90329,0.27593,-11.1073,-9.44408
0.91332,-0.19857,-9.28307,-7.42397
0.92336,-0.81059,-6.84113,-3.39303
0.9334,-1.20563,-5.32291,-0.85338
0.94343,-0.99105,-5.75925,-0.86116
0.95347,-0.15502,-7.92481,-1.29242
0.96351,0.41674,-9.73408,-1.45163
0.97354,-0.3316,-10.41014,-2.09777
0.98358,-1.0723,-10.64657,-4.0474
0.99362,-0.80595,-9.2705,-5.47464
1.00365,-0.42512,-7.55775,-6.06646
1.01369,-0.48123,-6.00585,-4.93265
1.02373,0.05282,-5.16414,-4.41999
1.03376,3.18339,-5.8414,-6.93451
1.0438,3.88624,-8.4424,-8.21376
1.05384,-0.36182,-8.815,-6.00451
1.06387,-2.6643,-8.4653,-4.31719
1.07391,-2.32597,-8.60461,-3.66642
1.08395,-1.1769,-8.62526,-3.61749
1.09398,-1.39343,-8.90284,-3.81082
1.10402,-2.14655,-8.57394,-3.24175
1.11406,-2.68704,-8.32643,-3.08029
1.12409,-2.51765,-8.01683,-3.37777
1.13413,-1.64437,-7.26506,-4.17025
1.14416,-1.05644,-7.01995,-4.47805
1.1542,-0.9508,-7.5359,-3.89716
1.16424,-1.38819,-7.88051,-2.9109
1.17427,-1.74373,-7.62284,-3.0767
1.18431,-2.21404,-7.7421,-4.64595
1.19435,-3.04677,-8.58127,-6.44968
1.20438,-4.24926,-10.07854,-7.69422
1.21442,-5.07975,-10.40206,-6.48799
1.22446,-4.36448,-9.1659,-3.39827
1.23449,-2.77638,-7.90131,-1.21326
1.24453,-2.17738,-7.45899,-0.57955
1.25457,-2.05692,-6.73624,-0.13048
1.2646,-1.95412,-6.49128,-0.4326
1.27464,-1.74702,-7.33493,-1.25232
1.28468,-1.58331,-7.41499,-1.64407
1.29471,-2.22735,-6.69104,-1.32684
1.30475,-2.79493,-6.6267,-0.96531
1.31479,-2.44672,-6.86103,-0.69402
1.32482,-2.17573,-6.36663,-0.1631
1.33486,-1.81525,-5.78708,0.73951
1.3449,-1.239,-5.10084,2.11767
1.35493,-0.46687,-4.10995,5.08304
1.36497,-0.36871,-3.96809,8.84164
1.37501,-0.61531,-3.93517,8.9392
1.38504,-0.52104,-2.85733,7.42636
1.39508,0.03546,-2.85942,6.67533
1.40511,-0.10355,-3.20599,6.70631
1.41515,-0.83064,-3.40381,7.21119
1.42519,-1.14398,-3.62916,8.4442
1.43523,-1.16912,-3.53713,8.20388
1.44526,-1.23316,-3.42476,7.74718
1.4553,-1.27237,-2.93155,8.39362
1.46534,-1.02232,-2.2076,9.4957
1.47537,-0.76136,-1.84653,10.67231
1.48541,-0.50757,-1.36185,11.69224
1.49544,-0.05626,-0.83737,13.03104
1.50548,0.19438,-0.80026,13.20926
1.51552,-0.27877,-0.87269,12.3264
1.52555,-0.70434,-1.39208,11.93061
1.53559,-1.34509,-1.99736,12.37219
1.54563,-1.86508,-1.94095,13.57467
1.55566,-1.5287,-1.52017,13.78597
1.5657,-0.78066,-1.41363,12.97313
1.57574,0.05537,-1.03055,12.62044
1.58577,0.72844,-0.64,13.14551
1.59581,0.91548,-0.67277,13.85315
1.60585,0.84949,-0.68025,13.76995
1.61588,0.94511,-0.37514,12.70184
1.62592,1.03968,-0.11447,11.00225
1.63596,1.11899,-0.02903,9.58324
1.64599,1.18079,-0.205,8.77131
1.65603,0.85608,-0.62967,9.00848
1.66607,0.54274,-0.62863,10.04787
1.6761,0.5978,-0.2879,10.46401
1.68614,0.79054,-0.27234,9.85932
1.69618,0.73382,-0.15293,8.93007
1.70621,0.70225,0.13677,8.24443
1.71625,1.05809,-0.39355,7.81243
1.72629,0.1245,-0.64284,12.62912
1.73632,-1.55189,-0.46567,19.43119
1.74636,-1.25531,-0.68579,16.05596
1.75639,-0.38457,-1.24484,12.9456
1.76643,-0.51685,-0.68145,10.13839
1.77647,-0.06734,0.04325,6.89709
1.7865,-0.03861,0.19213,6.86358
1.79654,-0.18211,-0.08275,7.66878
1.80658,-0.43634,-0.62309,9.2506
1.81661,-0.48767,-0.65915,10.19122
1.82665,-0.36317,-0.52343,10.34041
1.83669,-0.03127,-0.2885,9.83313
1.84672,0.32905,-0.21638,9.48149
1.85676,0.21638,-0.05267,9.83598
1.8668,-0.06449,-0.16161,10.29641
1.87683,-0.05956,-0.24511,10.7787
1.88687,0.1242,-0.25663,10.6922
1.89691,-0.04624,-0.37918,10.00133
1.90694,-0.1878,-0.29045,9.53132
1.91698,-0.13033,-0.23164,9.67916
1.92701,-0.16834,-0.20336,9.87548
1.93705,-0.13797,-0.13737,9.77089
1.94709,-0.08006,-0.07138,9.71118
1.95713,-0.12599,-0.02649,9.77627
1.96716,-0.00269,-0.07452,9.61003
1.9772,0.11732,-0.09517,9.66943
1.98724,0.11387,-0.0217,9.66883
1.99727,0.10534,0.07991,9.70729
2.00731,-0.24137,-0.02439,11.3123
2.01734,-0.24885,0.08739,12.35258
2.02738,0.30152,0.55665,8.23216
2.03742,0.08365,0.25349,10.16339
2.04745,0.27219,0.32771,9.87503
2.05749,0.19378,0.21787,9.69293
2.06753,0.10759,0.17343,9.90362
2.07756,0.05926,0.13856,9.77597
2.0876,0.05103,0.13318,9.81847
2.09764,0.05462,0.1251,9.75188
2.10767,0.07362,0.11911,9.77972
2.11771,0.11148,0.15817,9.79842
2.12775,0.1251,0.1453,9.7854
2.13778,0.07302,0.05821,9.76774
2.14782,0.04729,0.041,9.88551
2.15786,0.06809,0.06853,9.85064
2.16789,0.14844,0.16729,9.71313
2.17793,0.13632,0.16565,9.70564
2.18797,0.03846,0.09831,9.68679
2.198,0.03457,0.13004,9.98173
2.20804,0.13168,0.27967,9.83882
2.21808,0.09008,0.27204,9.43809
2.22811,0.27488,-0.3735,10.29716
2.23815,-0.04175,0.09592,9.86636
2.24819,-0.04325,0.23254,9.79064
2.25822,-0.00838,0.0636,9.77852
2.26826,-0.04908,0.04908,9.69083
2.27829,-0.1224,0.0226,9.6434
2.28833,-0.05043,0.00703,10.09321
2.29837,0.11851,-0.05462,9.81892
2.3084,0.32022,-0.01511,9.41385
2.31844,0.12629,0.07003,9.44782
2.32848,0.02484,0.14156,10.43648
2.33851,-0.04025,0.44667,10.1381
2.34855,-0.18809,0.09263,9.69188
2.35859,0.01392,0.04594,9.8478
2.36862,-0.02634,0.07991,9.77852
2.37866,-0.03352,0.06404,9.84271
2.3887,-0.05552,0.05956,9.80471
2.39873,-0.04025,0.05462,9.79304
2.40877,-0.03965,0.06973,9.78675
2.41881,-0.03397,0.05282,9.78525
2.42884,-0.0621,0.05342,9.78944
2.43888,-0.04968,0.06689,9.82386
2.44892,-0.02215,0.04654,9.80351
2.45895,-0.03112,0.05507,9.78046
2.46899,-0.03921,0.06434,9.79363
2.47903,-0.03561,0.03621,9.8047
2.48906,-0.03472,0.04609,9.81518
2.4991,-0.03561,0.05402,9.79842
2.50914,-0.022,0.05746,9.80545
2.51917,-0.02948,0.05552,9.81279
2.52921,-0.04684,0.04534,9.79438
2.53924,-0.03142,0.05177,9.79318
2.54928,-0.04339,0.04564,9.81608
2.55932,-0.04085,0.06614,9.79543
2.56935,-0.03741,0.06614,9.77493
2.57939,-0.01092,0.05746,9.79677
2.58943,-0.02454,0.05372,9.81234
2.59946,-0.02993,0.05237,9.81488
2.6095,-0.03576,0.05567,9.79767
2.61954,-0.02634,0.06225,9.81009
2.62957,-0.04055,0.04474,9.7872
2.63961,-0.05073,0.04579,9.79707
2.64965,-0.02574,0.05911,9.82206
2.65968,-0.02918,0.06614,9.80875
2.66972,-0.01915,0.05941,9.79737
2.67976,-0.03531,0.05327,9.79663
2.68979,-0.04055,0.04968,9.82012
2.69983,-0.03801,0.05312,9.80186
2.70987,-0.03217,0.04744,9.79483
2.7199,-0.04145,0.06225,9.80231
2.72994,-0.04848,0.06838,9.8056
2.73998,-0.0208,0.05297,9.79004
2.75001,-0.02185,0.05641,9.79303
2.76005,-0.02843,0.06045,9.80381
2.77009,-0.02424,0.06105,9.79947
2.78012,-0.01481,0.06524,9.8059
2.79016,-0.0187,0.06509,9.79094
2.80019,-0.03127,0.04788,9.79333
2.81023,-0.03786,0.06928,9.8059
2.82027,-0.04758,0.06614,9.82266
2.8303,-0.041,0.04414,9.80605
2.84034,-0.01556,0.05492,9.78705
2.85038,-0.0401,0.0612,9.79887
2.86041,-0.05372,0.06,9.80889
2.87045,-0.02978,0.06165,9.80845
2.88049,-0.01077,0.06659,9.79378
2.89052,-0.01347,0.05881,9.80022
2.90056,-0.02753,0.0615,9.80082
2.9106,-0.03247,0.05492,9.82311
2.92063,-0.03786,0.05746,9.80082
2.93067,-0.03651,0.03831,9.7887
2.94071,-0.0419,0.05118,9.80007
2.95074,-0.03831,0.05971,9.81323
2.96078,-0.02918,0.07407,9.805
2.97082,-0.02334,0.06674,9.78136
2.98085,-0.03127,0.05926,9.8068
2.99089,-0.0395,0.07572,9.83658
3.00093,-0.03068,0.05851,9.80515
3.01096,-0.01586,0.05103,9.77253
3.021,-0.02589,0.05851,9.80456
3.03104,-0.0428,0.06509,9.82925
3.04107,-0.03771,0.0627,9.80126
3.05111,-0.01616,0.05552,9.80859
3.06115,-0.02125,0.05971,9.81323
3.07118,-0.04609,0.04714,9.7848
3.08122,-0.03487,0.0612,9.80097
3.09125,-0.0223,0.0618,9.81264
3.10129,-0.02903,0.05237,9.81384
3.11133,-0.03097,0.06868,9.79273
3.12136,-0.03382,0.06509,9.80695
3.1314,-0.03008,0.04998,9.82087
3.14144,-0.03771,0.04923,9.80605
3.15147,-0.04025,0.05342,9.79797
3.16151,-0.02993,0.05462,9.82132
3.17155,-0.03487,0.06479,9.786
3.18158,-0.02544,0.05611,9.79229
3.19162,-0.04459,0.05971,9.82266
3.20166,-0.03711,0.05103,9.81114
3.21169,-0.03172,0.06749,9.79767
3.22173,-0.04624,0.05537,9.8074
3.23177,-0.03142,0.0416,9.81817
3.2418,-0.02469,0.05312,9.79617
3.25184,-0.04414,0.05148,9.79618
3.26188,-0.03442,0.06719,9.80471
3.27191,-0.02858,0.06554,9.81204
3.28195,0.00703,0.04818,9.91454
3.29199,0.09128,-0.19109,9.83059
3.30202,-0.08963,0.1043,9.4969
3.31206,-0.09517,0.31289,9.84211
3.3221,-0.02245,0.02619,9.94058
3.33213,-0.02843,0.06285,9.78974
3.34217,-0.01182,0.06629,9.81084
3.3522,-0.06674,0.02364,9.78091
3.36224,-0.01526,0.05537,9.80051
3.37228,-0.03367,0.04983,9.79767
3.38231,-0.06928,0.05507,9.79573
3.39235,-0.04983,0.06674,9.8264
3.40239,-0.02499,0.05043,9.8053
3.41242,-0.02499,0.04773,9.77478
3.42246,-0.03756,0.05896,9.76505
3.4325,-0.11567,-0.0187,9.83613
3.44253,-0.5589,-0.42512,9.78106
3.45257,-0.87882,-0.97713,9.77732
3.46261,-0.78844,-1.16987,9.77343
3.47264,-0.27459,-0.6397,9.89523
3.48268,0.06419,0.4525,9.81264
3.49272,0.54124,0.99644,9.78705
3.50275,2.44822,1.15834,9.75727
3.51279,1.7144,0.31499,9.76909
3.52283,1.05734,-0.27668,9.82431
3.53286,0.50413,0.13752,9.82221
3.5429,0.00599,0.60932,9.69787
3.55294,-0.65302,1.05659,9.78615
3.56297,-1.17256,0.49321,9.65791
3.57301,-0.83647,-0.79966,10.08797
3.58305,-0.05731,-0.51505,10.23671
3.59308,0.38891,-0.30272,9.85079
3.60312,0.476,-0.331,9.92606
3.61316,0.55665,-0.10295,9.78076
3.62319,0.58658,0.18091,9.85738
3.63323,0.53466,0.39474,9.87788
3.64326,0.45056,0.58897,9.85289
3.6533,-0.16116,0.36527,9.97873
3.66334,-0.75821,0.09771,10.02332
3.67337,-1.22508,-0.06689,10.0344
3.68341,-1.07949,0.04399,10.15202
3.69345,-1.60277,0.11313,10.18434
3.70348,-1.84608,0.12629,10.09216
3.71352,-2.22182,0.12061,10.00507
3.72356,-2.6625,0.23523,9.94477
3.73359,-2.67133,0.3506,9.75727
3.74363,-3.59235,0.62204,9.34606
3.75367,-4.57337,0.65526,8.71175
3.7637,-4.97784,0.65691,8.24578
3.77374,-5.22325,0.64808,7.95414
3.78378,-5.71705,0.65317,7.02264
3.79381,-6.59064,1.1543,6.90937
3.80385,-7.31219,0.55141,5.56817
3.81389,-8.16049,-0.07691,5.14604
3.82392,-8.0306,-0.31858,4.99341
3.83396,-7.77218,-0.12869,5.45175
3.844,-8.37133,0.08634,4.2958
3.85403,-9.06879,-0.14156,2.63213
3.86407,-9.68799,-0.36946,1.3831
3.87411,-11.17045,-1.02876,2.17633
3.88414,-9.61601,-0.8058,-0.32651
3.89418,-9.4128,-0.41001,-1.57434
3.90422,-9.98711,-0.23358,-1.88394
3.91425,-10.10009,1.41258,-1.70617
3.92429,-10.60018,0.39609,-2.02265
3.93432,-10.31617,0.66828,-1.59603
3.94436,-10.03874,1.08966,-1.07978
3.9544,-10.12867,1.57509,-0.63357
3.96443,-9.76475,1.65095,-0.72814
3.97447,-8.4846,1.42964,-1.12348
3.98451,-7.28047,0.91593,-1.61609
3.99454,-7.34721,0.3931,-1.08966
4.00458,-7.20296,-0.37215,-0.38816
4.01462,-11.97954,-2.54803,-8.98649
4.02465,-11.67577,-4.06685,-9.40068
4.03469,-6.84083,-2.61058,-3.28425
4.04473,-7.42861,-0.25932,-7.74943
4.05476,-6.60201,-0.4323,-7.27777
4.0648,-5.99104,-0.77512,-7.95459
4.07484,-5.8025,-0.55979,-8.01339
4.08487,-5.61006,-0.4968,-8.44959
4.09491,-5.11357,0.63342,-8.22723
4.10495,-5.2436,0.56593,-8.43387
4.11498,-4.77673,0.41255,-8.59025
4.12502,-5.42107,0.2267,-9.09318
4.13506,-5.72454,0.11432,-7.83458
4.14509,-5.72364,0.55411,-7.81782
4.15513,-7.13756,0.88705,-7.08055
4.16517,-5.65331,0.65706,-8.06592
4.1752,-5.09755,0.67187,-8.38434
4.18524,-4.8306,0.44921,-8.49298
4.19528,-4.93071,0.41465,-8.36534
4.20531,-5.14559,0.49276,-8.22214
4.21535,-5.26036,0.29239,-8.23815
4.22538,-4.5828,0.36422,-8.74437
4.23542,-3.95672,-0.07482,-8.9184
4.24546,-3.1572,-0.57326,-9.3751
4.25549,-2.88831,-0.91623,-9.33559
4.26553,-2.73358,-1.12737,-9.40981
4.27557,-2.42368,-0.8278,-9.39859
4.2856,-2.78356,-0.36227,-9.17802
4.29564,-3.62243,-0.19483,-9.08809
4.30568,-3.91213,-0.27638,-9.07806
4.31571,-3.57245,-0.30855,-9.24267
4.32575,-2.86361,-0.15083,-9.41161
4.33579,-2.59083,-0.26396,-9.50333
4.34582,-2.28586,-0.29524,-9.69068
4.35586,-1.9191,-0.19588,-9.79318
4.3659,-1.93242,-0.27788,-9.76595
4.37593,-2.00933,-0.41764,-9.53192
4.38597,-2.0035,-0.32561,-9.43779
4.39601,-1.86927,-0.1845,-9.38737
4.40604,-2.04659,-0.22895,-9.32706
4.41608,-2.23963,-0.32741,-9.31644
4.42612,-2.17423,-0.3515,-9.4125
4.43615,-1.64078,-0.16325,-9.36686
4.44619,-1.54411,-0.11657,-9.12565
4.45622,-1.78398,-0.11537,-11.7467
4.46626,-4.6675,0.69791,-33.20488
4.4763,0.39504,0.50592,2.95504
4.48633,0.90007,-0.05492,2.23484
4.49637,0.60334,0.12315,2.70066
4.50641,0.73008,-0.3934,1.03594
4.51644,1.49623,-1.75136,-29.77923
4.52648,0.11747,0.19872,-13.4816
4.53652,-1.06183,-0.59346,-13.88727
4.54655,-1.55234,-0.70928,-14.79018
4.55659,0.15697,-0.11088,-3.8385
4.56663,1.03385,-0.05237,-1.94409
4.57666,0.61561,-0.80939,-8.96793
4.5867,-0.77692,-0.95334,-15.44544
4.59674,-1.26743,-0.24391,-13.10347
4.60677,-0.30406,-0.10909,-6.88153
4.61681,0.3307,-0.34806,-8.08881
4.62685,-0.01631,-0.44083,-9.95404
4.63688,-0.96771,-0.25468,-12.96954
4.64692,0.18854,-0.4142,-7.59291
4.65696,0.3114,-0.3922,-8.82413
4.66699,-0.68848,-0.2683,-12.09611
4.67703,0.03038,-0.45131,-7.64499
4.68707,-0.32516,-0.31768,-11.28268
4.6971,0.06809,-0.35838,-8.93426
4.70714,-0.31843,-0.2909,-10.23506
4.71718,-0.27488,-0.34387,-9.73722
4.72721,-0.17567,-0.34477,-9.75697
4.73725,-0.05327,-0.37559,-9.77642
4.74728,-0.13812,-0.36646,-9.78016
4.75732,-0.2873,-0.34985,-9.70355
4.76736,-0.16969,-0.33803,-9.79498
4.77739,-0.06794,-0.35569,-9.77732
4.78743,-0.17582,-0.3494,-9.81114
4.79747,-0.19887,-0.37963,-9.72525
4.8075,-0.205,-0.34043,-9.72375
4.81754,-0.1049,-0.33983,-9.73737
4.82758,-0.13512,-0.35913,-9.84825
4.83761,-0.22146,-0.36152,-9.75009
4.84765,-0.18181,-0.36078,-9.69637
4.85769,-0.14814,-0.33145,-9.77343
4.86772,-0.14979,-0.32397,-9.79647
4.87776,-0.14305,-0.36123,-9.7848
4.8878,-0.17373,-0.37754,-9.69682
4.89783,-0.15921,-0.36721,-9.7664
4.90787,-0.12794,-0.34521,-9.83688
4.91791,-0.17612,-0.34866,-9.78331
4.92794,-0.19902,-0.34462,-9.70579
4.93798,-0.20066,-0.35689,-9.75188
4.94802,-0.16266,-0.35344,-9.80455
4.95805,-0.11417,-0.35674,-9.77418
4.96809,-0.14515,-0.35883,-9.71806
4.97813,-0.18465,-0.35285,-9.75084
4.98816,-0.13752,-0.34731,-9.78211
4.9982,-0.1447,-0.34551,-9.76535
5.00824,-0.17313,-0.33534,-9.77074
5.01827,-0.19079,-0.35928,-9.77044
5.02831,-0.16041,-0.35569,-9.75981
5.03834,-0.13946,-0.35704,-9.7658
5.04838,-0.16834,-0.35329,-9.77373
5.05842,-0.1875,-0.35374,-9.75039
5.06845,-0.16595,-0.33639,-9.76445
5.07849,-0.14994,-0.33908,-9.78001
5.08853,-0.15817,-0.34895,-9.78405
5.09856,-0.16415,-0.35404,-9.7637
5.1086,-0.1637,-0.35539,-9.74605
5.11864,-0.15158,-0.34551,-9.75697
5.12867,-0.16834,-0.34372,-9.76251
5.13871,-0.17777,-0.35,-9.77957
5.14875,-0.17807,-0.34611,-9.78974
5.15878,-0.16445,-0.34776,-9.7444
5.16882,-0.18031,-0.35808,-9.73871
5.17886,-0.16325,-0.36063,-9.78435
5.18889,-0.14949,-0.35763,-9.77328
5.19893,-0.16251,-0.35973,-9.74605
5.20897,-0.17897,-0.34207,-9.7658
5.219,-0.16969,-0.33205,-9.78555
5.22904,-0.1441,-0.35225,-9.76281
5.23908,-0.16685,-0.3506,-9.74784
5.24911,-0.17717,-0.34551,-9.76296
5.25915,-0.15951,-0.34432,-9.80276
5.26919,-0.15218,-0.35135,-9.75338
5.27922,-0.17268,-0.35075,-9.75128
5.28926,-0.1863,-0.34342,-9.76759
5.2993,-0.1462,-0.34297,-9.78151
5.30933,-0.14889,-0.35778,-9.74171
5.31937,-0.17283,-0.34746,-9.7643
5.32941,-0.18001,-0.33998,-9.7435
5.33944,-0.17253,-0.3527,-9.75024
5.34948,-0.16221,-0.35165,-9.77418
5.35951,-0.16774,-0.3497,-9.80276
5.36955,-0.17762,-0.3521,-9.7456
5.37959,-0.17253,-0.36048,-9.72255
5.38962,-0.16251,-0.36392,-9.78061
5.39966,-0.15069,-0.34836,-9.78615
5.4097,-0.16385,-0.33998,-9.76041
5.41973,-0.17418,-0.36197,-9.74006
5.42977,-0.1875,-0.34327,-9.78301
5.43981,-0.15128,-0.34566,-9.78765
5.44984,-0.15398,-0.36182,-9.77582
5.45988,-0.17642,-0.34252,-9.75682
5.46992,-0.17238,-0.35359,-9.76924
5.47995,-0.15158,-0.36018,-9.76146
5.48999,-0.15039,-0.34776,-9.77208
5.50003,-0.16804,-0.34671,-9.76311
5.51006,-0.18136,-0.3506,-9.73602
5.5201,-0.16071,-0.33788,-9.77238
5.53014,-0.15083,-0.34806,-9.79423
5.54017,-0.17897,-0.35509,-9.76385
5.55021,-0.1857,-0.36003,-9.73467
5.56025,-0.17313,-0.34791,-9.79543
5.57028,-0.14904,-0.34566,-9.79288
5.58032,-0.15218,-0.34462,-9.77029
5.59036,-0.19902,-0.35689,-9.73707
5.60039,-0.17957,-0.3506,-9.75966
5.61043,-0.14021,-0.36048,-9.78854
5.62047,-0.15128,-0.36272,-9.77627
5.6305,-0.17732,-0.35584,-9.76326
5.64054,-0.17777,-0.34641,-9.75817
5.65058,-0.1447,-0.34297,-9.77957
5.66061,-0.15892,-0.34925,-9.77717
5.67065,-0.18301,-0.35823,-9.7673
5.68068,-0.17747,-0.36437,-9.76191
5.69072,-0.1459,-0.34866,-9.77029
5.70076,-0.15622,-0.35225,-9.76011
5.71079,-0.18331,-0.35928,-9.75413
5.72083,-0.18271,-0.35748,-9.76445
5.73087,-0.15473,-0.34881,-9.77178
5.7409,-0.16056,-0.34821,-9.80081
5.75094,-0.1872,-0.3506,-9.77208
5.76098,-0.18061,-0.3491,-9.74739
5.77101,-0.16026,-0.35135,-9.74515
5.78105,-0.15009,-0.36452,-9.77478
5.79109,-0.16131,-0.35509,-9.77448
5.80112,-0.16475,-0.35793,-9.76595
5.81116,-0.18016,-0.33579,-9.73812
5.8212,-0.167,-0.35704,-9.75847
5.83123,-0.15892,-0.35554,-9.77627
5.84127,-0.15832,-0.35718,-9.75113
5.85131,-0.15428,-0.36093,-9.76281
5.86134,-0.16026,-0.3494,-9.78405
5.87138,-0.1661,-0.3506,-9.77882
5.88142,-0.16355,-0.34731,-9.73333
5.89145,-0.17343,-0.35569,-9.76879
5.90149,-0.17163,-0.34641,-9.77822
5.91153,-0.14709,-0.35943,-9.76565
5.92156,-0.15577,-0.34596,-9.75488
5.9316,-0.17328,-0.35838,-9.77178
5.94164,-0.16191,-0.34058,-9.75353
5.95167,-0.15682,-0.34177,-9.76819
5.96171,-0.17119,-0.36646,-9.78196
5.97175,-0.17104,-0.36302,-9.75682
5.98178,-0.17328,-0.36437,-9.73019
5.99182,-0.16924,-0.35165,-9.78016
6.00186,-0.15607,-0.33459,-9.79513
6.01189,-0.16131,-0.34731,-9.75907
6.02193,-0.17178,-0.3512,-9.74081
6.03197,-0.17702,-0.35554,-9.76221
6.042,-0.15592,-0.35464,-9.77253
6.05204,-0.15443,-0.35569,-9.76131
6.06207,-0.16849,-0.35748,-9.77747
6.07211,-0.16415,-0.35853,-9.7857
6.08215,-0.16281,-0.35793,-9.76565
6.09218,-0.17104,-0.3491,-9.75712
6.10222,-0.16071,-0.34611,-9.77208
6.11226,-0.1655,-0.34746,-9.77119
6.12229,-0.16146,-0.3494,-9.76894
6.13233,-0.16625,-0.34716,-9.77358
6.14237,-0.17223,-0.34851,-9.77029
6.1524,-0.17807,-0.35614,-9.74455
6.16244,-0.16071,-0.34866,-9.76864
6.17248,-0.16191,-0.35374,-9.7854
6.18251,-0.17119,-0.3512,-9.77448
6.19255,-0.16909,-0.35958,-9.74216
6.20259,-0.16355,-0.3527,-9.77732
6.21262,-0.15817,-0.34402,-9.78435
6.22266,-0.16655,-0.36078,-9.77358
6.2327,-0.17463,-0.33908,-9.77089
6.24273,-0.17837,-0.34536,-9.76655
6.25277,-0.15787,-0.34731,-9.75832
6.26281,-0.16281,-0.35569,-9.76954
6.27284,-0.14829,-0.35,-9.78555
6.28288,-0.15113,-0.36527,-9.76296
6.29292,-0.15832,-0.35225,-9.75682
6.30295,-0.16804,-0.35359,-9.76894
6.31299,-0.17478,-0.34626,-9.77702
6.32303,-0.16325,-0.34955,-9.75039
6.33306,-0.17148,-0.35808,-9.75757
6.3431,-0.15862,-0.34536,-9.78166
6.35314,-0.15173,-0.35389,-9.7652
6.36317,-0.15098,-0.35569,-9.78016
6.37321,-0.15458,-0.34866,-9.76325
6.38324,-0.16894,-0.36033,-9.74545
6.39328,-0.16774,-0.36227,-9.74874
6.40332,-0.14904,-0.35329,-9.78166
6.41335,-0.17059,-0.34895,-9.76236
6.42339,-0.17253,-0.35479,-9.73856
6.43343,-0.16625,-0.34447,-9.75757
6.44346,-0.15682,-0.34551,-9.77553
6.4535,-0.15652,-0.35629,-9.7661
6.46354,-0.16565,-0.35389,-9.75398
6.47357,-0.16984,-0.35255,-9.77927
6.48361,-0.15069,-0.3506,-9.75936
6.49365,-0.15921,-0.35733,-9.74979
6.50368,-0.16161,-0.35449,-9.77433
6.51372,-0.17657,-0.33848,-9.75039
6.52376,-0.17927,-0.33908,-9.745
6.53379,-0.15921,-0.35389,-9.76191
6.54383,-0.16969,-0.35359,-9.78615
6.55387,-0.1652,-0.34686,-9.76071
6.5639,-0.16879,-0.35988,-9.76999
6.57394,-0.15951,-0.34791,-9.78705
6.58398,-0.17508,-0.34836,-9.74889
6.59401,-0.1646,-0.35569,-9.74186
6.60405,-0.16804,-0.35674,-9.77568
6.61409,-0.15547,-0.353,-9.77223
6.62412,-0.16505,-0.34791,-9.75338
6.63416,-0.16236,-0.34566,-9.76655
6.6442,-0.17612,-0.3509,-9.76954
6.65423,-0.16146,-0.34162,-9.7444
6.66427,-0.15607,-0.34611,-9.77463
6.67431,-0.16505,-0.34536,-9.77313
6.68434,-0.15951,-0.34237,-9.75682
6.69438,-0.16879,-0.34581,-9.76191
6.70441,-0.15966,-0.34716,-9.77133
6.71445,-0.15682,-0.35644,-9.78181
6.72449,-0.16266,-0.36078,-9.74964
6.73452,-0.17238,-0.33983,-9.77014
6.74456,-0.16685,-0.34147,-9.7848
6.7546,-0.15802,-0.35015,-9.76161
6.76463,-0.16864,-0.35868,-9.75024
6.77467,-0.1634,-0.35584,-9.77837
6.78471,-0.17119,-0.35329,-9.78256
6.79474,-0.15278,-0.33713,-9.77986
6.80478,-0.17508,-0.35075,-9.77852
6.81482,-0.17717,-0.35225,-9.76176
6.82485,-0.16535,-0.34566,-9.77672
6.83489,-0.14874,-0.35629,-9.77927
6.84493,-0.15981,-0.34372,-9.77912
6.85496,-0.18121,-0.35344,-9.74261
6.865,-0.15981,-0.34402,-9.75413
6.87504,-0.1447,-0.3491,-9.77702
6.88507,-0.16266,-0.34895,-9.75009
6.89511,-0.17552,-0.36467,-9.77014
6.90515,-0.15847,-0.35883,-9.78316
6.91518,-0.15443,-0.35344,-9.7866
6.92522,-0.16625,-0.34551,-9.75532
6.93526,-0.18046,-0.3494,-9.74919
6.94529,-0.16445,-0.34851,-9.77867
6.95533,-0.13482,-0.34192,-9.77313
6.96537,-0.15877,-0.36452,-9.75772
6.9754,-0.17433,-0.34895,-9.75772
6.98544,-0.15936,-0.34611,-9.75323
6.99548,-0.15592,-0.36063,-9.74814
7.00551,-0.16116,-0.33668,-9.78929
7.01555,-0.16071,-0.3512,-9.77193
7.02558,-0.1637,-0.33444,-9.73602
7.03562,-0.17163,-0.35344,-9.7634
7.04566,-0.1655,-0.34282,-9.79662
7.05569,-0.16236,-0.34282,-9.75787
7.06573,-0.16999,-0.35344,-9.74814
7.07577,-0.1667,-0.35943,-9.77897
7.0858,-0.15951,-0.34462,-9.76849
7.09584,-0.15039,-0.34746,-9.73692
7.10588,-0.16056,-0.35793,-9.78061
7.11591,-0.17074,-0.33968,-9.80186
7.12595,-0.16939,-0.34477,-9.76565
7.13599,-0.16849,-0.35644,-9.74665
7.14602,-0.17552,-0.36497,-9.75503
7.15606,-0.16894,-0.35674,-9.76535
7.1661,-0.15353,-0.35389,-9.75503
7.17613,-0.14844,-0.33923,-9.7658
7.18617,-0.17837,-0.34746,-9.76595
7.19621,-0.16251,-0.34222,-9.74829
7.20624,-0.16849,-0.35554,-9.77672
7.21628,-0.15338,-0.36212,-9.79483
7.22632,-0.16969,-0.35823,-9.75787
7.23635,-0.15936,-0.36123,-9.74709
7.24639,-0.15173,-0.35449,-9.77672
7.25643,-0.15682,-0.35793,-9.76954
7.26646,-0.1658,-0.36736,-9.75158
7.2765,-0.167,-0.34312,-9.75907
7.28654,-0.14635,-0.34925,-9.764
7.29657,-0.15757,-0.34043,-9.76206
7.30661,-0.17373,-0.35689,-9.75173
7.31665,-0.17627,-0.35135,-9.77478
7.32668,-0.1637,-0.3509,-9.77253
7.33672,-0.15308,-0.34686,-9.75278
7.34676,-0.16281,-0.34806,-9.75907
7.35679,-0.16969,-0.3515,-9.78585
7.36683,-0.15667,-0.34402,-9.7459
7.37686,-0.14111,-0.35853,-9.76789
7.3869,-0.16131,-0.35,-9.76311
7.39694,-0.17044,-0.35464,-9.74754
7.40697,-0.16355,-0.34985,-9.77343
7.41701,-0.17089,-0.35494,-9.77822
7.42705,-0.17193,-0.36167,-9.77059
7.43708,-0.16685,-0.33953,-9.75832
7.44712,-0.1643,-0.3509,-9.78331
7.45716,-0.15233,-0.34222,-9.76595
7.46719,-0.15368,-0.34357,-9.73617
7.47723,-0.16715,-0.36512,-9.75832
7.48727,-0.15308,-0.34925,-9.786
7.4973,-0.16011,-0.34432,-9.76206
7.50734,-0.17403,-0.34925,-9.75084
7.51738,-0.16999,-0.34402,-9.75757
7.52741,-0.1661,-0.34402,-9.76415
7.53745,-0.15158,-0.353,-9.76026
7.54749,-0.15981,-0.35135,-9.77358
7.55752,-0.17523,-0.35449,-9.77343
7.56756,-0.17523,-0.3497,-9.76146
7.5776,-0.15832,-0.35569,-9.75832
7.58763,-0.1667,-0.35015,-9.77612
7.59767,-0.17283,-0.35614,-9.75906
7.60771,-0.17612,-0.34866,-9.75532
7.61774,-0.1631,-0.34417,-9.79378
7.62778,-0.16071,-0.36108,-9.77283
7.63782,-0.17283,-0.34671,-9.74679
7.64785,-0.18435,-0.34566,-9.77044
7.65789,-0.1643,-0.353,-9.77328
7.66793,-0.14919,-0.35344,-9.77762
7.67796,-0.15158,-0.34746,-9.75667
7.688,-0.17627,-0.35225,-9.75098
7.69803,-0.16625,-0.34132,-9.75503
7.70807,-0.15757,-0.3497,-9.77014
7.71811,-0.16325,-0.34955,-9.78256
7.72815,-0.17134,-0.35359,-9.76281
7.73818,-0.16999,-0.36033,-9.74575
7.74822,-0.16056,-0.34596,-9.7664
7.75825,-0.15577,-0.36048,-9.7664
7.76829,-0.17044,-0.35778,-9.76131
7.77833,-0.15637,-0.33878,-9.76879
7.78836,-0.15847,-0.34551,-9.77942
7.7984,-0.14739,-0.3518,-9.76355
7.80844,-0.16685,-0.35629,-9.75383
7.81847,-0.16879,-0.35434,-9.76281
7.82851,-0.16251,-0.35419,-9.7658
7.83855,-0.15981,-0.34372,-9.76864
7.84858,-0.17852,-0.34836,-9.7643
7.85862,-0.17807,-0.35778,-9.74425
7.86866,-0.16325,-0.35913,-9.74679
7.87869,-0.14994,-0.34327,-9.78495
7.88873,-0.16221,-0.34881,-9.78316
7.89877,-0.16969,-0.35075,-9.76475
7.9088,-0.16445,-0.35614,-9.7447
7.91884,-0.16909,-0.34985,-9.77493
7.92888,-0.15443,-0.33579,-9.77014
7.93891,-0.16101,-0.35704,-9.73497
7.94895,-0.1643,-0.35629,-9.75413
7.95899,-0.15517,-0.33893,-9.78076
7.96902,-0.14874,-0.34521,-9.76415
7.97906,-0.15607,-0.35494,-9.74934
7.9891,-0.1839,-0.34641,-9.77448
7.99913,-0.17373,-0.34207,-9.76445
8.00917,-0.15787,-0.34626,-9.77134
8.01921,-0.17627,-0.35165,-9.76954
8.02924,-0.17882,-0.35988,-9.75697
8.03928,-0.15083,-0.35329,-9.76176
8.04931,-0.15218,-0.35599,-9.76939
8.05935,-0.14799,-0.36167,-9.76939
8.06939,-0.16894,-0.35389,-9.74006
8.07942,-0.16729,-0.34342,-9.7444
8.08946,-0.16011,-0.34776,-9.77148
8.0995,-0.16191,-0.3518,-9.786
8.10953,-0.16415,-0.34162,-9.78316
8.11957,-0.16191,-0.35225,-9.7435
8.12961,-0.18256,-0.36048,-9.68095
8.13964,-0.18136,-0.36482,-9.84256
8.14968,-0.10759,-0.32352,-9.93235
8.15972,-0.13617,-0.36541,-9.72525
8.16975,-0.25992,-0.35778,-9.57576
8.17979,-0.21398,-0.34372,-9.83583
8.18983,-0.08769,-0.34506,-9.8267
8.19986,-0.09951,-0.37215,-9.71672
8.2099,-0.23733,-0.35659,-9.75293
8.21994,-0.23747,-0.3319,-9.78735
8.22997,-0.08963,-0.32666,-9.77493
8.24001,-0.11687,-0.34641,-9.7634
8.25005,-0.25139,-0.37858,-9.73617
8.26008,-0.19288,-0.36616,-9.74964
8.27012,-0.09158,-0.35614,-9.7866
8.28016,-0.11283,-0.34821,-9.82341
8.29019,-0.21653,-0.3494,-9.73632
8.30023,-0.24301,-0.36407,-9.67856
8.31027,-0.11956,-0.34013,-9.79917
8.32093,-0.19109,-0.3705,-9.72959
8.33097,-0.19109,-0.3705,-9.72959
8.341,-0.19318,-0.35584,-9.69786
8.35104,-0.14904,-0.33414,-9.79378
8.36108,-0.12285,-0.34581,-9.81787
8.37111,-0.16999,-0.35539,-9.74111
8.38115,-0.22236,-0.35674,-9.71088
8.39119,-0.15532,-0.35195,-9.79812
8.40122,-0.10983,-0.35434,-9.79752
8.41126,-0.17867,-0.3524,-9.74111
8.4213,-0.20605,-0.36616,-9.745
8.43133,-0.17283,-0.35614,-9.77672
8.44137,-0.11178,-0.34357,-9.76385
8.45141,-0.16011,-0.36497,-9.77074
8.46144,-0.21533,-0.36123,-9.75458
8.47148,-0.16804,-0.35434,-9.75517
8.48152,-0.12495,-0.33728,-9.77433
8.49155,-0.15966,-0.34282,-9.8056
8.50159,-0.18735,-0.35404,-9.76415
8.51163,-0.17627,-0.36796,-9.71477
8.52166,-0.15966,-0.35614,-9.76191
8.5317,-0.1435,-0.3497,-9.82296
8.54174,-0.16251,-0.36048,-9.75203
8.55177,-0.17538,-0.36003,-9.72255
8.56181,-0.16176,-0.35644,-9.78121
8.57184,-0.15128,-0.34237,-9.78031
8.58188,-0.1655,-0.35988,-9.75458
8.59192,-0.19019,-0.35404,-9.73393
8.60195,-0.18241,-0.35659,-9.77104
8.61199,-0.14679,-0.3494,-9.78869
8.62203,-0.13797,-0.34102,-9.74455
8.63206,-0.17523,-0.36018,-9.73841
8.6421,-0.17702,-0.36467,-9.76385
8.65214,-0.14784,-0.35285,-9.77927
8.66217,-0.15682,-0.34716,-9.78929
8.67221,-0.18046,-0.34626,-9.75921
8.68225,-0.1878,-0.34192,-9.74305
8.69228,-0.15877,-0.35015,-9.76385
8.70232,-0.14455,-0.34836,-9.79558
8.71236,-0.16655,-0.35135,-9.77493
8.72239,-0.17597,-0.3524,-9.75158
8.73243,-0.16864,-0.33728,-9.77163
8.74247,-0.15772,-0.34551,-9.77897
8.7525,-0.1646,-0.36392,-9.76595
8.76254,-0.17478,-0.34237,-9.77223
8.77258,-0.1631,-0.35689,-9.77582
8.78261,-0.14979,-0.36152,-9.75368
8.79265,-0.1643,-0.35045,-9.77268
8.80269,-0.16595,-0.35778,-9.77193
8.81272,-0.1664,-0.34881,-9.77358
8.82276,-0.15338,-0.34581,-9.76191
8.8328,-0.15173,-0.34895,-9.76385
8.84283,-0.16086,-0.3521,-9.75173
8.85287,-0.16325,-0.36182,-9.75817
8.86291,-0.15787,-0.34791,-9.75921
8.87294,-0.16894,-0.34357,-9.77792
8.88298,-0.17298,-0.36033,-9.78046
8.89302,-0.17253,-0.3512,-9.75832
8.90305,-0.15862,-0.34836,-9.78016
8.91309,-0.15323,-0.34521,-9.75143
8.92312,-0.16999,-0.35285,-9.76954
8.93316,-0.1634,-0.34252,-9.77388
8.9432,-0.15757,-0.34477,-9.77597
8.95323,-0.15667,-0.35135,-9.7441
8.96327,-0.17986,-0.35539,-9.75024
8.97331,-0.15787,-0.35449,-9.77882
8.98334,-0.14664,-0.34327,-9.77448
8.99338,-0.16385,-0.35778,-9.76879
9.00342,-0.1649,-0.3503,-9.75996
9.01408,-0.15383,-0.35464,-9.76251
9.02412,-0.15757,-0.36392,-9.79004
9.03415,-0.15517,-0.35359,-9.77014
9.04419,-0.1652,-0.34925,-9.76236
9.05423,-0.15981,-0.3527,-9.78271
9.06426,-0.15233,-0.35718,-9.77223
9.0743,-0.17463,-0.35075,-9.74485
9.08434,-0.1637,-0.34925,-9.75966
9.09437,-0.14545,-0.34701,-9.77837
9.10441,-0.15742,-0.35868,-9.76146
9.11445,-0.17822,-0.3512,-9.74216
9.12448,-0.16221,-0.35314,-9.77313
9.13452,-0.15233,-0.34596,-9.80785
9.14456,-0.1652,-0.36078,-9.76505
9.15459,-0.17538,-0.34596,-9.74186
9.16463,-0.17059,-0.35045,-9.76984
9.17467,-0.1667,-0.3512,-9.75742
9.1847,-0.17104,-0.35659,-9.7432
9.19474,-0.17074,-0.34791,-9.77897
9.20478,-0.15892,-0.36018,-9.79423
9.21481,-0.15547,-0.35868,-9.76236
9.22485,-0.16969,-0.35105,-9.75458
9.23489,-0.18091,-0.36676,-9.77343
9.24492,-0.15847,-0.34566,-9.75368
9.25496,-0.15428,-0.34746,-9.77403
9.265,-0.15682,-0.33983,-9.78061
9.27503,-0.17687,-0.34117,-9.75727
9.28507,-0.17747,-0.35344,-9.74679
9.2951,-0.15532,-0.34836,-9.77672
9.30514,-0.17104,-0.35015,-9.77148
9.31518,-0.18301,-0.3503,-9.7441
9.32521,-0.15218,-0.34806,-9.76251
9.33525,-0.14425,-0.34342,-9.78286
9.34529,-0.14949,-0.34851,-9.75398
9.35532,-0.17104,-0.36123,-9.74156
9.36536,-0.17792,-0.34641,-9.76595
9.3754,-0.14201,-0.35748,-9.78106
9.38543,-0.15996,-0.35374,-9.75158
9.39547,-0.17867,-0.35838,-9.76176
9.40551,-0.18166,-0.3518,-9.77313
9.41554,-0.16804,-0.35285,-9.767
9.42558,-0.15263,-0.34656,-9.77927
9.43562,-0.17552,-0.35554,-9.76281
9.44565,-0.16939,-0.34955,-9.74799
9.45569,-0.167,-0.33773,-9.76056
9.46573,-0.16655,-0.34551,-9.79528
9.47576,-0.16655,-0.36197,-9.77253
9.4858,-0.17523,-0.34895,-9.74664
9.49584,-0.17373,-0.35973,-9.75966
9.50587,-0.15772,-0.35419,-9.77418
9.51591,-0.16191,-0.35629,-9.74665
9.52595,-0.15877,-0.36003,-9.75338
9.53598,-0.16296,-0.35464,-9.7845
9.54602,-0.15622,-0.34596,-9.75547
9.55606,-0.17418,-0.3512,-9.7459
9.56609,-0.17074,-0.35389,-9.76146
9.57613,-0.15757,-0.34491,-9.76191
9.58616,-0.14874,-0.35808,-9.7649
9.5962,-0.15921,-0.35584,-9.78061
9.60624,-0.1637,-0.34297,-9.75877
9.61627,-0.16041,-0.35449,-9.75263
9.62631,-0.1649,-0.36197,-9.75697
9.63635,-0.17313,-0.34551,-9.78151
9.64638,-0.16116,-0.35569,-9.76565
9.65642,-0.17223,-0.35165,-9.75907
9.66646,-0.16894,-0.35419,-9.77268
9.67649,-0.16685,-0.34357,-9.77972
9.68653,-0.1667,-0.35165,-9.75562
9.69657,-0.16729,-0.34596,-9.77418
9.7066,-0.1643,-0.34671,-9.77014
9.71664,-0.15742,-0.34297,-9.73991
9.72668,-0.16744,-0.33863,-9.75832
9.73671,-0.16759,-0.35973,-9.79363
9.74675,-0.16146,-0.35314,-9.78465
9.75679,-0.15921,-0.3512,-9.72585
9.76682,-0.18121,-0.33743,-9.76011
9.77686,-0.16804,-0.35045,-9.77747
9.7869,-0.15353,-0.35015,-9.75742
9.79693,-0.14979,-0.3509,-9.76894
9.80697,-0.16505,-0.35329,-9.7652
9.81701,-0.17193,-0.34836,-9.76864
9.82704,-0.16146,-0.35539,-9.7649
9.83708,-0.16939,-0.34761,-9.77119
9.84712,-0.15787,-0.35778,-9.77508
9.85715,-0.17253,-0.34821,-9.76804
9.86719,-0.1652,-0.34087,-9.7646
9.87723,-0.15712,-0.35285,-9.77403
9.88726,-0.16789,-0.36332,-9.75428
9.8973,-0.16131,-0.35255,-9.75652
9.90734,-0.15592,-0.35763,-9.76894
9.91737,-0.15966,-0.3518,-9.77388
9.92741,-0.16804,-0.34566,-9.76011
9.93745,-0.16355,-0.35554,-9.76774
9.94748,-0.1649,-0.36018,-9.74874
9.95752,-0.17029,-0.33953,-9.75143
9.96755,-0.15368,-0.34671,-9.77672
9.97759,-0.167,-0.34611,-9.76804
9.98763,-0.16879,-0.34716,-9.76595
9.99766,-0.17148,-0.34312,-9.75727
10.0077,-0.167,-0.34641,-9.75532
10.01774,-0.15128,-0.3518,-9.76954
10.02777,-0.16505,-0.35823,-9.78989
10.03781,-0.15458,-0.34746,-9.77448
10.04785,-0.1661,-0.35255,-9.75188
10.05788,-0.1661,-0.35135,-9.75353
10.06792,-0.164,-0.35225,-9.79692
10.07796,-0.14799,-0.35314,-9.79049
10.08799,-0.16056,-0.35748,-9.75951
10.09803,-0.17358,-0.35808,-9.76535
10.10807,-0.16864,-0.34102,-9.76924
10.1181,-0.14425,-0.35195,-9.75742
10.12814,-0.1667,-0.36078,-9.77238
10.13818,-0.17104,-0.34491,-9.77657
10.14821,-0.15607,-0.3515,-9.76296
10.15825,-0.15562,-0.34536,-9.7435
10.16829,-0.17119,-0.34656,-9.77253
10.17832,-0.16071,-0.35689,-9.77792
10.18836,-0.14186,-0.34866,-9.7441
10.1984,-0.16176,-0.33773,-9.76894
10.20843,-0.17059,-0.35344,-9.77822
10.21847,-0.16325,-0.35973,-9.764
10.22851,-0.14934,-0.35165,-9.75323
10.23854,-0.17627,-0.34043,-9.76819
10.24858,-0.17373,-0.3518,-9.78615
10.25862,-0.16161,-0.34551,-9.75697
10.26865,-0.17747,-0.34102,-9.75473
10.27869,-0.16834,-0.34776,-9.7634
10.28873,-0.16355,-0.35105,-9.75353
10.29876,-0.15487,-0.34432,-9.76445
10.3088,-0.16535,-0.36227,-9.77627
10.31884,-0.17134,-0.35449,-9.77163
10.32887,-0.16056,-0.35075,-9.75398
10.33891,-0.16475,-0.34506,-9.76939
10.34895,-0.14754,-0.33639,-9.79483
10.35898,-0.15383,-0.35674,-9.76625
10.36902,-0.16625,-0.36033,-9.75143
10.37905,-0.15502,-0.353,-9.76969
10.38909,-0.15592,-0.34866,-9.77253
10.39913,-0.15862,-0.36452,-9.75353
10.40916,-0.16625,-0.36317,-9.77119
10.4192,-0.16744,-0.33728,-9.76146
10.42924,-0.16266,-0.35479,-9.74724
10.43928,-0.18046,-0.34551,-9.75443
10.44931,-0.18076,-0.35554,-9.78076
10.45935,-0.16744,-0.33639,-9.76715
10.46939,-0.16505,-0.34447,-9.7637
10.47942,-0.17373,-0.36482,-9.76355
10.48946,-0.17268,-0.35554,-9.7658
10.49949,-0.14919,-0.34731,-9.78675
10.50953,-0.14186,-0.34776,-9.76954
10.51957,-0.17897,-0.35494,-9.75353
10.5296,-0.17313,-0.35748,-9.75428
10.53964,-0.16445,-0.35255,-9.75682
10.54968,-0.15757,-0.35389,-9.76625
10.55971,-0.17478,-0.36317,-9.77208
10.56975,-0.16954,-0.34312,-9.75772
10.57979,-0.15802,-0.34955,-9.75592
10.58982,-0.15353,-0.35195,-9.75996
10.59986,-0.16385,-0.34117,-9.76759
10.6099,-0.15547,-0.3515,-9.76041
10.61993,-0.15173,-0.35479,-9.76819
10.62997,-0.15263,-0.34013,-9.76161
10.64001,-0.17672,-0.34162,-9.77777
10.65004,-0.1842,-0.35105,-9.76116
10.66008,-0.17134,-0.36078,-9.74949
10.67012,-0.16161,-0.3503,-9.74874
10.68015,-0.167,-0.35434,-9.77044
10.69019,-0.15577,-0.35434,-9.75921
10.70023,-0.17134,-0.36108,-9.75383
10.71026,-0.15128,-0.34791,-9.75158
10.7203,-0.16026,-0.35225,-9.75473
10.73034,-0.15877,-0.36167,-9.76355
10.74037,-0.15862,-0.35599,-9.77597
10.75041,-0.15727,-0.35359,-9.77792
10.76045,-0.16325,-0.34327,-9.77657
10.77048,-0.17762,-0.35359,-9.75862
10.78052,-0.18061,-0.36197,-9.76101
10.79056,-0.15278,-0.35045,-9.77942
10.80059,-0.18016,-0.35434,-9.7652
10.81063,-0.18525,-0.34506,-9.74455
10.82067,-0.16984,-0.35449,-9.76954
10.8307,-0.15338,-0.34731,-9.77089
10.84074,-0.17208,-0.33773,-9.7658
10.85078,-0.16879,-0.35374,-9.7673
10.86081,-0.16625,-0.35314,-9.75128
10.87085,-0.16625,-0.33713,-9.77373
10.88089,-0.1646,-0.36123,-9.7637
10.89092,-0.17627,-0.35225,-9.76415
10.90096,-0.17328,-0.34477,-9.77702
10.911,-0.15906,-0.34192,-9.77508
10.92103,-0.15862,-0.34866,-9.77044
10.93107,-0.15936,-0.35599,-9.76101
10.94111,-0.15069,-0.3515,-9.7661
10.95114,-0.16116,-0.36093,-9.7875
10.96118,-0.16056,-0.35958,-9.77867
10.97121,-0.17059,-0.3503,-9.76056
10.98125,-0.16894,-0.3491,-9.77074
10.99129,-0.15652,-0.36033,-9.76071
11.00132,-0.1631,-0.35419,-9.77493
11.01136,-0.16774,-0.35075,-9.77283
11.0214,-0.15502,-0.35434,-9.75293
11.03143,-0.15652,-0.34866,-9.75966
11.04147,-0.15652,-0.35539,-9.76565
11.05151,-0.17119,-0.35958,-9.77298
11.06154,-0.16086,-0.3509,-9.78106
11.07158,-0.16924,-0.34357,-9.75488
11.08162,-0.16909,-0.34836,-9.75443
11.09165,-0.16041,-0.35913,-9.7667
11.10169,-0.15293,-0.3491,-9.77792
11.11173,-0.1839,-0.36227,-9.77059
11.12176,-0.15981,-0.34536,-9.76236
11.1318,-0.16715,-0.34656,-9.76804
11.14184,-0.17448,-0.34117,-9.76086
11.15187,-0.18974,-0.35973,-9.75951
11.16191,-0.18166,-0.36571,-9.76176
11.17195,-0.16161,-0.35255,-9.77777
11.18198,-0.1646,-0.34731,-9.77029
11.19202,-0.16565,-0.36242,-9.76715
11.20206,-0.17313,-0.35359,-9.76819
11.21209,-0.16385,-0.36182,-9.75907
11.22213,-0.16445,-0.35644,-9.75473
11.23217,-0.17283,-0.35763,-9.75637
11.2422,-0.17822,-0.35644,-9.77328
11.25224,-0.17373,-0.34881,-9.78465
11.26228,-0.15458,-0.3527,-9.76625
11.27231,-0.16729,-0.33803,-9.73422
11.28235,-0.1655,-0.35225,-9.76565
11.29239,-0.15218,-0.35045,-9.79139
11.30242,-0.13722,-0.35015,-9.78316
11.31246,-0.17463,-0.35928,-9.75128
11.3225,-0.19722,-0.35449,-9.75143
11.33253,-0.15398,-0.35344,-9.76804
11.34257,-0.14889,-0.35733,-9.76715
11.35261,-0.16774,-0.35434,-9.76864
11.36264,-0.17657,-0.35629,-9.75622
11.37268,-0.15562,-0.35748,-9.75458
11.38271,-0.14829,-0.34836,-9.75906
11.39275,-0.16984,-0.34881,-9.77912
11.40279,-0.17463,-0.34506,-9.77792
11.41283,-0.15502,-0.35524,-9.75592
11.42286,-0.17343,-0.35389,-9.76744
11.4329,-0.15951,-0.35629,-9.78001
11.44294,-0.15936,-0.35718,-9.77358
11.45297,-0.15652,-0.34851,-9.76041
11.46301,-0.17388,-0.34342,-9.78196
11.47305,-0.17283,-0.35674,-9.7652
11.48308,-0.15787,-0.34611,-9.75338
11.49312,-0.14694,-0.3515,-9.76744
11.50316,-0.1634,-0.34836,-9.76969
11.51319,-0.17867,-0.34955,-9.75981
11.52323,-0.16774,-0.34447,-9.75323
11.53326,-0.16176,-0.33444,-9.7661
11.5433,-0.17148,-0.35644,-9.75353
11.55334,-0.16101,-0.35988,-9.77912
11.56337,-0.15218,-0.3506,-9.79962
11.57341,-0.15951,-0.35524,-9.77059
11.58345,-0.17403,-0.3497,-9.73737
11.59348,-0.16834,-0.36467,-9.75054
11.60352,-0.14335,-0.35898,-9.79722
11.61356,-0.15263,-0.33968,-9.7643
11.62359,-0.17178,-0.35704,-9.7462
11.63363,-0.16864,-0.34641,-9.77627
11.64367,-0.16445,-0.34222,-9.76685
11.6537,-0.16071,-0.34925,-9.76999
11.66374,-0.17523,-0.35389,-9.76266
11.67378,-0.17597,-0.35928,-9.76071
11.68381,-0.16789,-0.34851,-9.7646
11.69385,-0.17627,-0.33803,-9.75951
11.70389,-0.16565,-0.35733,-9.77852
11.71392,-0.16355,-0.35389,-9.77717
11.72396,-0.15832,-0.35359,-9.75517
11.734,-0.15502,-0.36377,-9.76475
11.74403,-0.16251,-0.34506,-9.75996
11.75407,-0.16415,-0.3506,-9.76819
11.76411,-0.17597,-0.33175,-9.76296
11.77414,-0.2047,-0.34821,-9.77762
11.78418,-0.17717,-0.3696,-9.78405
11.79422,-0.13767,-0.3928,-9.76131
11.80425,-0.13812,-0.3735,-9.76954
11.81429,-0.16011,-0.3506,-9.72285
11.82433,-0.15517,-0.3497,-9.75293
11.83436,-0.14814,-0.37065,-9.78884
11.8444,-0.15039,-0.36362,-9.75278
11.85444,-0.17014,-0.33758,-9.76834
11.86447,-0.15188,-0.31095,-9.80291
11.87451,-0.15772,-0.31918,-9.70325
11.88455,-0.205,-0.34462,-9.70938
11.89458,-0.18645,-0.36227,-9.83733
11.90462,-0.15173,-0.33803,-9.79333
11.91466,-0.14829,-0.32397,-9.71582
11.92469,-0.18316,-0.31993,-9.76281
11.93473,-0.17672,-0.35135,-9.78929
11.94477,-0.11657,-0.39025,-9.7429
11.9548,-0.13033,-0.37469,-9.74934
11.96484,-0.20126,-0.35943,-9.76221
11.97488,-0.1655,-0.34432,-9.77792
11.98491,-0.13437,-0.35853,-9.75248
11.99495,-0.17418,-0.36946,-9.79558
12.00499,-0.21877,-0.36691,-9.78016
12.01502,-0.18286,-0.33743,-9.7257
12.02506,-0.14245,-0.33414,-9.78106
12.0351,-0.15353,-0.34477,-9.79887
12.04513,-0.18824,-0.353,-9.7465
12.05517,-0.17732,-0.35389,-9.74829
12.0652,-0.15009,-0.33399,-9.79468
12.07524,-0.13647,-0.33339,-9.77044
12.08528,-0.15443,-0.34686,-9.74246
12.09531,-0.17672,-0.3521,-9.76206
12.10535,-0.15203,-0.35644,-9.77986
12.11539,-0.15263,-0.33803,-9.80246
12.12542,-0.20022,-0.34282,-9.76924
12.13546,-0.19588,-0.34297,-9.74201
12.1455,-0.17343,-0.34671,-9.76161
12.15553,-0.15443,-0.34013,-9.79004
12.16557,-0.16355,-0.35434,-9.77418
12.17561,-0.16505,-0.36332,-9.75338
12.18564,-0.15009,-0.35943,-9.73617
12.19568,-0.14994,-0.34806,-9.75338
12.20572,-0.16715,-0.35,-9.7842
12.21575,-0.16191,-0.34851,-9.77687
12.22579,-0.17897,-0.3301,-9.76026
12.23583,-0.17313,-0.34267,-9.75577
12.24586,-0.15802,-0.3509,-9.79004
12.2559,-0.15981,-0.35285,-9.74051
12.26594,-0.15787,-0.38681,-9.75877
12.27597,-0.15188,-0.38786,-9.79363
12.28601,-0.15308,-0.35359,-9.7649
12.29605,-0.17253,-0.34701,-9.75682
12.30608,-0.17777,-0.3515,-9.7658
12.31612,-0.15622,-0.32905,-9.78405
12.32678,-0.15622,-0.32905,-9.78405
12.33682,-0.15622,-0.32905,-9.78405
12.34686,-0.17223,-0.3301,-9.78271
12.35689,-0.18555,-0.33893,-9.75577
12.36693,-0.16236,-0.33309,-9.76954
12.37697,-0.14679,-0.33953,-9.77403
12.387,-0.13318,-0.35195,-9.75996
12.39704,-0.14216,-0.35404,-9.72465
12.40708,-0.15473,-0.35883,-9.75667
12.41711,-0.14096,-0.3497,-9.76116
12.42715,-0.1465,-0.34072,-9.77253
12.43719,-0.18076,-0.35,-9.76984
12.44722,-0.18076,-0.33309,-9.77852
12.45726,-0.16879,-0.31603,-9.75488
12.4673,-0.16236,-0.34372,-9.767
12.47733,-0.17493,-0.36482,-9.78615
12.48737,-0.18316,-0.37409,-9.75233
12.49741,-0.15532,-0.37754,-9.75158
12.50744,-0.1643,-0.36601,-9.76909
12.51748,-0.18091,-0.36482,-9.79468
12.52752,-0.17253,-0.3702,-9.79348
12.53755,-0.19154,-0.37499,-9.7661
12.54759,-0.20455,-0.34671,-9.76999
12.55763,-0.17418,-0.32741,-9.77627
12.56766,-0.15817,-0.33668,-9.74111
12.5777,-0.15338,-0.34851,-9.74425
12.58774,-0.16191,-0.34402,-9.76086
12.59777,-0.15951,-0.34641,-9.75951
12.60781,-0.16056,-0.33609,-9.77178
12.61784,-0.14679,-0.33788,-9.7643
12.62788,-0.16774,-0.34372,-9.7637
12.63792,-0.17777,-0.36003,-9.75443
12.64796,-0.17508,-0.37215,-9.75562
12.65799,-0.16565,-0.36033,-9.75981
12.66803,-0.17687,-0.3521,-9.76251
12.67806,-0.17837,-0.35329,-9.77253
12.6881,-0.15383,-0.35629,-9.78256
12.69814,-0.16266,-0.35494,-9.7649
12.70817,-0.17373,-0.35225,-9.75158
12.71821,-0.14709,-0.34312,-9.76385
12.72825,-0.14515,-0.35629,-9.7631
12.73828,-0.17343,-0.34551,-9.73542
12.74832,-0.17657,-0.33249,-9.75218
12.75836,-0.17298,-0.33025,-9.78375
12.76839,-0.17927,-0.34192,-9.76011
12.77843,-0.18316,-0.3506,-9.76191
12.78847,-0.1872,-0.3521,-9.76984
12.7985,-0.16041,-0.35075,-9.75622
12.80854,-0.15742,-0.35285,-9.74679
12.81858,-0.15996,-0.36946,-9.73931
12.82861,-0.15787,-0.35853,-9.75607
12.83865,-0.14724,-0.3509,-9.77538
12.84869,-0.15278,-0.34177,-9.78735
12.85872,-0.17029,-0.32546,-9.75697
12.86876,-0.18899,-0.33639,-9.7438
12.8788,-0.17897,-0.34536,-9.77149
12.88883,-0.16206,-0.34477,-9.77972
12.89887,-0.16146,-0.33713,-9.77627
12.90891,-0.17238,-0.33683,-9.76385
12.91894,-0.17134,-0.3512,-9.76984
12.92898,-0.15248,-0.36556,-9.75607
12.93902,-0.16729,-0.36826,-9.75862
12.94905,-0.167,-0.3708,-9.77538
12.95909,-0.17717,-0.36123,-9.77687
12.96913,-0.15847,-0.36377,-9.75847
12.97916,-0.18091,-0.36482,-9.75877
12.9892,-0.1866,-0.36347,-9.80426
12.99986,-0.16086,-0.34686,-9.76281
13.0099,-0.16789,-0.34491,-9.77193
13.01994,-0.16954,-0.36033,-9.77433
13.02997,-0.15532,-0.34237,-9.74784
13.04001,-0.17253,-0.34581,-9.78914
13.05005,-0.18166,-0.35763,-9.77208
13.06008,-0.19393,-0.35958,-9.75577
13.07012,-0.18929,-0.35255,-9.77867
13.08016,-0.2068,-0.32097,-9.805
13.09019,-0.22491,-0.31035,-9.77358
13.10023,-0.1848,-0.35584,-9.7863
13.11027,-0.16759,-0.36751,-9.79333
13.1203,-0.13841,-0.37963,-9.76266
13.13034,-0.16311,-0.35569,-9.72465
13.14038,-0.17552,-0.3491,-9.72764
13.15041,-0.14545,-0.34506,-9.79947
13.16045,-0.14216,-0.33624,-9.74575
13.17049,-0.1649,-0.33534,-9.74709
13.18052,-0.13617,-0.33788,-9.74904
13.19056,-0.1013,-0.32681,-9.72091
13.20059,-0.10953,-0.31888,-9.74305
13.21063,-0.15772,-0.33354,-9.75772
13.22067,-0.20216,-0.34297,-9.76625
13.2307,-0.16565,-0.3313,-9.73692
13.24074,-0.19617,-0.30436,-9.86112
13.25078,-0.15218,-0.34566,-9.78046
13.26081,-0.19333,-0.38696,-9.69697
13.27085,-0.19184,-0.40522,-9.74664
13.28089,-0.15892,-0.39564,-9.85992
13.29092,-0.16475,-0.37709,-9.71836
13.30096,-0.18301,-0.35838,-9.73437
13.311,-0.20755,-0.36901,-9.80455
13.32103,-0.15951,-0.34881,-9.76056
13.33107,-0.10295,-0.35389,-9.7673
13.34111,-0.16625,-0.34551,-9.75712
13.35114,-0.17597,-0.32052,-9.73273
13.36118,-0.13482,-0.31588,-9.72749
13.37122,-0.14635,-0.31424,-9.79139
13.38125,-0.16445,-0.33908,-9.78346
13.39129,-0.19094,-0.36347,-9.72809
13.40133,-0.17597,-0.35419,-9.75128
13.41136,-0.12884,-0.36871,-9.77792
13.4214,-0.14754,-0.39804,-9.75428
13.43144,-0.1842,-0.38966,-9.73497
13.44147,-0.17029,-0.37589,-9.79109
13.45151,-0.15293,-0.35569,-9.75757
13.46155,-0.16744,-0.34746,-9.74261
13.47158,-0.18331,-0.34656,-9.73138
13.48162,-0.16236,-0.34551,-9.74739
13.49166,-0.09921,-0.34806,-9.76729
13.50169,-0.11672,-0.33833,-9.74964
13.51173,-0.16475,-0.34521,-9.72046
13.52177,-0.13737,-0.34776,-9.73033
13.5318,-0.12151,-0.37514,-9.69741
13.54184,-0.12599,-0.36841,-9.74021
13.55188,-0.13632,-0.353,-9.84152
13.56191,-0.17433,-0.36571,-9.69457
13.57195,-0.20051,-0.33205,-9.71717
13.58199,-0.18136,-0.35105,-9.90616
13.59202,-0.23613,-0.33758,-9.87249
13.60206,-0.27638,-0.33249,-9.74635
13.6121,-0.31813,-0.32501,-9.74874
13.62213,-0.27713,-0.33624,-9.78316
13.63217,-0.11402,-0.38307,-9.76655
13.64221,-0.11507,-0.38562,-9.75532
13.65224,-0.16281,-0.35255,-9.73722
13.66228,-0.11612,-0.32217,-9.7257
13.67232,-0.07901,-0.29823,-9.74141
13.68235,-0.07512,-0.31993,-9.79079
13.69239,-0.11118,-0.34836,-9.73423
13.70242,-0.17148,-0.31783,-9.70774
13.71246,-0.13572,-0.31574,-9.77074
13.7225,-0.14111,-0.31783,-9.81638
13.73253,-0.2065,-0.33743,-9.7456
13.74257,-0.23942,-0.36063,-9.75338
13.75261,-0.22446,-0.37739,-9.77972
13.76264,-0.17253,-0.39444,-9.80037
13.77268,-0.14859,-0.42213,-9.78824
13.78272,-0.18735,-0.45056,-9.76326
13.79275,-0.20845,-0.46029,-9.767
13.80279,-0.20485,-0.42018,-9.77373
13.81283,-0.21638,-0.39175,-9.8056
13.82286,-0.21443,-0.3696,-9.80291
13.8329,-0.22461,-0.34312,-9.80051
13.84294,-0.21458,-0.33309,-9.75907
13.85297,-0.18495,-0.30825,-9.74635
13.86301,-0.17463,-0.29509,-9.78076
13.87305,-0.15443,-0.27354,-9.7646
13.88308,-0.12195,-0.27683,-9.70983
13.89312,-0.10909,-0.27518,-9.7224
13.90316,-0.11687,-0.28566,-9.76984
13.91319,-0.10714,-0.32157,-9.75712
13.92323,-0.12599,-0.33743,-9.72674
13.93327,-0.14141,-0.35359,-9.73722
13.9433,-0.14784,-0.3943,-9.77044
13.95334,-0.16281,-0.37813,-9.76655
13.96338,-0.20904,-0.38307,-9.76221
13.97341,-0.23867,-0.37379,-9.79692
13.98345,-0.25887,-0.35748,-9.81099
13.99349,-0.23433,-0.36975,-9.81054
14.00352,-0.23179,-0.40507,-9.79767
14.01356,-0.22939,-0.40657,-9.78031
14.0236,-0.20994,-0.3922,-9.76939
14.03363,-0.19169,-0.37724,-9.76236
14.04367,-0.16834,-0.35285,-9.77882
14.05371,-0.15383,-0.33534,-9.78405
14.06374,-0.15009,-0.33624,-9.73752
14.07378,-0.14156,-0.32606,-9.71657
14.08382,-0.13782,-0.32367,-9.73677
14.09385,-0.123,-0.31544,-9.764
14.10389,-0.11956,-0.31035,-9.74724
14.11393,-0.15951,-0.30421,-9.73827
14.12396,-0.18914,-0.29987,-9.75113
14.134,-0.16595,-0.30017,-9.75966
14.14404,-0.16715,-0.31514,-9.73542
14.15407,-0.17567,-0.35359,-9.75742
14.16411,-0.18839,-0.38158,-9.77508
14.17415,-0.1655,-0.39893,-9.76984
14.18418,-0.16864,-0.41135,-9.75488
14.19422,-0.19453,-0.40746,-9.7857
14.20426,-0.19977,-0.39489,-9.79079
14.21429,-0.19363,-0.39819,-9.76984
14.22433,-0.19258,-0.39714,-9.77927
14.23437,-0.20321,-0.38232,-9.78241
14.2444,-0.19019,-0.37619,-9.7664
14.25444,-0.17717,-0.33998,-9.76326
14.26448,-0.17552,-0.31618,-9.78585
14.27451,-0.17328,-0.31214,-9.76221
14.28455,-0.17388,-0.30347,-9.72435
14.29459,-0.17433,-0.29718,-9.75473
14.30462,-0.14904,-0.29224,-9.76161
14.31466,-0.12779,-0.3081,-9.74679
14.32469,-0.13886,-0.33085,-9.73752
14.33473,-0.13273,-0.33968,-9.76056
14.34477,-0.15981,-0.35045,-9.76326
14.3548,-0.14575,-0.36931,-9.75921
14.36484,-0.15802,-0.36751,-9.77358
14.37488,-0.19109,-0.36377,-9.77478
14.38491,-0.17567,-0.38098,-9.77493
14.39495,-0.18884,-0.39579,-9.77268
14.40499,-0.21069,-0.38547,-9.77597
14.41502,-0.23762,-0.39175,-9.78405
14.42506,-0.21428,-0.37125,-9.82146
14.4351,-0.20291,-0.36018,-9.81144
14.44513,-0.20455,-0.35838,-9.77792
14.45517,-0.21323,-0.36841,-9.74051
14.46521,-0.18585,-0.36347,-9.76266
14.47524,-0.13422,-0.3509,-9.77523
14.48528,-0.13991,-0.33549,-9.77268
14.49532,-0.14949,-0.33339,-9.73153
14.50535,-0.14904,-0.3304,-9.72749
14.51539,-0.12585,-0.3298,-9.75338
14.52543,-0.13288,-0.31409,-9.75278
14.53546,-0.15936,-0.32007,-9.74694
14.5455,-0.16595,-0.33639,-9.77089
14.55554,-0.15502,-0.34102,-9.76176
14.56557,-0.16625,-0.34955,-9.76011
14.57561,-0.19692,-0.34432,-9.74934
14.58565,-0.20485,-0.36437,-9.79019
14.59568,-0.18615,-0.36242,-9.80904
14.60572,-0.16894,-0.38532,-9.78301
14.61576,-0.20785,-0.3934,-9.76969
14.62579,-0.2065,-0.3934,-9.7673
14.63583,-0.18615,-0.38966,-9.78226
14.64587,-0.17104,-0.38053,-9.77268
14.6559,-0.18735,-0.36317,-9.76744
14.66594,-0.18809,-0.34626,-9.75847
14.67598,-0.16909,-0.34447,-9.75966
14.68601,-0.14949,-0.34372,-9.75443
14.69605,-0.16879,-0.34237,-9.74919
14.70609,-0.16789,-0.32771,-9.77149
14.71612,-0.13153,-0.32172,-9.7655
14.72616,-0.15817,-0.32696,-9.73662
14.7362,-0.1643,-0.33713,-9.75503
14.74623,-0.16939,-0.33324,-9.75907
14.75627,-0.17582,-0.34237,-9.75278
14.76631,-0.16685,-0.35314,-9.75817
14.77634,-0.16804,-0.36182,-9.77433
14.78638,-0.18151,-0.37424,-9.76281
14.79642,-0.1649,-0.37664,-9.7652
14.80645,-0.18585,-0.36362,-9.77373
14.81649,-0.20036,-0.36601,-9.7658
14.82652,-0.19348,-0.35569,-9.75353
14.83656,-0.17134,-0.36586,-9.79273
14.8466,-0.1658,-0.35344,-9.77283
14.85664,-0.18705,-0.34955,-9.76101
14.86667,-0.17538,-0.34402,-9.76834
14.87671,-0.15577,-0.33908,-9.77972
14.88674,-0.15473,-0.34477,-9.75308
14.89678,-0.15832,-0.35329,-9.75024
14.90682,-0.16789,-0.3506,-9.77448
14.91685,-0.15772,-0.34013,-9.7655
14.92689,-0.15308,-0.3518,-9.75697
14.93693,-0.16894,-0.33923,-9.75936
14.94696,-0.1851,-0.34282,-9.75069
14.957,-0.18675,-0.36108,-9.75712
14.96704,-0.17597,-0.34746,-9.786
14.97707,-0.18151,-0.34013,-9.79692
14.98711,-0.19228,-0.34955,-9.77089
14.99715,-0.18645,-0.36197,-9.76415
15.00718,-0.17807,-0.37424,-9.76415
15.01722,-0.16595,-0.36272,-9.78076
15.02726,-0.1631,-0.37095,-9.75368
15.03729,-0.16834,-0.36512,-9.76445
15.04733,-0.15712,-0.35509,-9.77163
15.05737,-0.15308,-0.35883,-9.75173
15.0674,-0.16071,-0.35165,-9.74859
15.07744,-0.17148,-0.3497,-9.75802
15.08748,-0.16385,-0.32561,-9.77178
15.09751,-0.16729,-0.32157,-9.74739
15.10755,-0.17283,-0.32337,-9.77523
15.11759,-0.19303,-0.34417,-9.77388
15.12762,-0.19079,-0.34716,-9.75503
15.13766,-0.18226,-0.34641,-9.7649
15.1477,-0.19468,-0.33743,-9.77882
15.15773,-0.19318,-0.35285,-9.79079
15.16777,-0.17971,-0.36033,-9.77568
15.17781,-0.17538,-0.37095,-9.75428
15.18784,-0.18211,-0.35838,-9.75278
15.19788,-0.16266,-0.37649,-9.79662
15.20792,-0.13901,-0.37095,-9.76101
15.21795,-0.16056,-0.36811,-9.75907
15.22799,-0.17792,-0.3699,-9.74515
15.23803,-0.17957,-0.35045,-9.77732
15.24806,-0.15353,-0.33384,-9.79423
15.2581,-0.17059,-0.34611,-9.75323
15.26814,-0.19917,-0.34716,-9.75921
15.27817,-0.19199,-0.33384,-9.78001
15.28821,-0.16999,-0.34566,-9.76999
15.29825,-0.17119,-0.34491,-9.75742
15.30828,-0.18346,-0.34611,-9.78181
15.31832,-0.16789,-0.32441,-9.77178
15.32836,-0.15996,-0.34731,-9.75473
15.33839,-0.16819,-0.37245,-9.75652
15.34843,-0.16041,-0.3711,-9.76326
15.35847,-0.16161,-0.36152,-9.75607
15.3685,-0.15054,-0.34641,-9.77612
15.37854,-0.1637,-0.34746,-9.76939
15.38858,-0.18361,-0.35344,-9.74201
15.39861,-0.16236,-0.36003,-9.75113
15.40865,-0.17852,-0.33713,-9.76939
15.41869,-0.16774,-0.34806,-9.77627
15.42872,-0.17134,-0.34267,-9.76804
15.43876,-0.1857,-0.34491,-9.75532
15.4488,-0.17208,-0.34297,-9.764
15.45883,-0.16759,-0.35449,-9.76146
15.46887,-0.17762,-0.34581,-9.76864
15.47891,-0.18959,-0.35225,-9.78929
15.48894,-0.17148,-0.36916,-9.75951
15.49898,-0.15906,-0.3708,-9.74889
15.50902,-0.16296,-0.35853,-9.77553
15.51905,-0.17268,-0.35569,-9.76774
15.52909,-0.17448,-0.35853,-9.75562
15.53913,-0.16909,-0.36571,-9.75293
15.54916,-0.18944,-0.35329,-9.77238
15.5592,-0.17478,-0.34491,-9.77747
15.56924,-0.17552,-0.35524,-9.7643
15.57927,-0.17882,-0.34013,-9.76505
15.58931,-0.16939,-0.34252,-9.76191
15.59935,-0.16804,-0.35015,-9.74515
15.60938,-0.17627,-0.35344,-9.75263
15.61942,-0.16086,-0.34506,-9.76595
15.62946,-0.17328,-0.34177,-9.77133
15.63949,-0.16011,-0.34043,-9.77777
15.64953,-0.16535,-0.36152,-9.77014
15.65956,-0.16954,-0.3705,-9.7456
15.6696,-0.1863,-0.35853,-9.73677
15.67964,-0.18061,-0.35674,-9.76774
15.68967,-0.16685,-0.35165,-9.77553
15.69971,-0.16909,-0.35449,-9.77687
15.70975,-0.17208,-0.35045,-9.78331
15.71978,-0.17567,-0.34432,-9.76595
15.72982,-0.16221,-0.3518,-9.75637
15.73986,-0.17448,-0.35359,-9.75009
15.74989,-0.17313,-0.35913,-9.76251
15.75993,-0.16281,-0.35614,-9.75667
15.76997,-0.16325,-0.35718,-9.76086
15.78,-0.16056,-0.34596,-9.77178
15.79004,-0.17867,-0.34821,-9.75862
15.80008,-0.17418,-0.35314,-9.76011
15.81011,-0.17223,-0.35449,-9.78391
15.82015,-0.18675,-0.34297,-9.76715
15.83019,-0.17657,-0.34117,-9.74694
15.84022,-0.17328,-0.34776,-9.77747
15.85026,-0.17747,-0.34237,-9.7875
15.8603,-0.17074,-0.35359,-9.76355
15.87033,-0.19094,-0.3723,-9.74096
15.88037,-0.18316,-0.35509,-9.77283
15.89041,-0.17732,-0.36377,-9.7652
15.90044,-0.17193,-0.35674,-9.74679
15.91048,-0.17642,-0.35853,-9.77029
15.92052,-0.16535,-0.3494,-9.76565
15.93055,-0.14694,-0.34925,-9.75637
15.94059,-0.1459,-0.34506,-9.74769
15.95063,-0.1649,-0.34581,-9.76056
15.96066,-0.16296,-0.33264,-9.79917
15.9707,-0.15712,-0.35404,-9.77822
15.98074,-0.19558,-0.35404,-9.74171
15.99077,-0.19782,-0.35823,-9.74081
16.00081,-0.19647,-0.34132,-9.76595
16.01085,-0.17942,-0.34701,-9.79812
16.02088,-0.16475,-0.35913,-9.77478
16.03092,-0.18001,-0.36452,-9.78301
16.04096,-0.19438,-0.3515,-9.76296
16.05099,-0.15607,-0.35135,-9.75727
16.06103,-0.16071,-0.36093,-9.75353
16.07107,-0.17867,-0.36661,-9.76011
16.0811,-0.17074,-0.36123,-9.76071
16.09114,-0.15817,-0.34626,-9.76685
16.10118,-0.16655,-0.3503,-9.76011
16.11121,-0.1854,-0.34866,-9.74994
16.12125,-0.18435,-0.33025,-9.76625
16.13129,-0.15502,-0.34596,-9.78854
16.14132,-0.16954,-0.35285,-9.78391
16.15136,-0.18929,-0.3521,-9.76281
16.1614,-0.18361,-0.34791,-9.7438
16.17143,-0.19887,-0.34551,-9.7658
16.18147,-0.18869,-0.35,-9.76879
16.19151,-0.18031,-0.35,-9.77029
16.20154,-0.17777,-0.35105,-9.75293
16.21158,-0.16266,-0.34536,-9.77119
16.22162,-0.15039,-0.3509,-9.79243
16.23165,-0.16415,-0.36766,-9.7257
16.24169,-0.14635,-0.35419,-9.7447
16.25173,-0.15607,-0.36467,-9.78316
16.26176,-0.14395,-0.34058,-9.77074
16.2718,-0.1661,-0.35629,-9.7438
16.28184,-0.18854,-0.35958,-9.77732
16.29187,-0.18136,-0.35195,-9.79438
16.30191,-0.17807,-0.34402,-9.76056
16.31195,-0.18256,-0.34881,-9.764
16.32261,-0.18435,-0.33504,-9.75398
16.33265,-0.18435,-0.33504,-9.75398
16.34268,-0.19543,-0.35614,-9.76565
16.35272,-0.17059,-0.36482,-9.78016
16.36276,-0.14934,-0.35359,-9.77642
16.37279,-0.15458,-0.35853,-9.76251
16.38283,-0.164,-0.35359,-9.73842
16.39287,-0.16999,-0.36467,-9.75398
16.4029,-0.15024,-0.35599,-9.76565
16.41294,-0.17328,-0.3509,-9.75547
16.42298,-0.16535,-0.35045,-9.75473
16.43301,-0.16625,-0.34671,-9.77403
16.44305,-0.17687,-0.33743,-9.7664
16.45309,-0.17912,-0.32845,-9.7453
16.46312,-0.186,-0.34791,-9.76655
16.47316,-0.15562,-0.34821,-9.79064
16.4832,-0.14844,-0.35883,-9.77448
16.49323,-0.1652,-0.35838,-9.7664
16.50327,-0.17717,-0.38382,-9.76236
16.51331,-0.18405,-0.36601,-9.77478
16.52334,-0.16984,-0.35853,-9.78929
16.53338,-0.17822,-0.37335,-9.77463
16.54342,-0.22072,-0.3904,-9.77702
16.55345,-0.22131,-0.37604,-9.7661
16.56349,-0.17493,-0.372,-9.75921
16.57353,-0.17074,-0.35494,-9.77508
16.58356,-0.21907,-0.36033,-9.79917
16.5936,-0.19498,-0.34686,-9.75143
16.60364,-0.15188,-0.34327,-9.76056
16.61367,-0.16729,-0.33025,-9.77882
16.62371,-0.18001,-0.34746,-9.7664
16.63375,-0.1444,-0.33624,-9.74769
16.64378,-0.13363,-0.34536,-9.75936
16.65382,-0.15248,-0.33758,-9.76191
16.66386,-0.17971,-0.34716,-9.7661
16.67389,-0.17328,-0.35434,-9.74934
16.68393,-0.16505,-0.35853,-9.76939
16.69397,-0.167,-0.38202,-9.79992
16.704,-0.20081,-0.37783,-9.77358
16.71404,-0.19124,-0.37365,-9.73108
16.72407,-0.17777,-0.37619,-9.76864
16.73411,-0.18121,-0.34656,-9.78076
16.74415,-0.17717,-0.34716,-9.78435
16.75418,-0.16056,-0.32651,-9.74245
16.76422,-0.16325,-0.33115,-9.74425
16.77426,-0.13797,-0.32875,-9.76011
16.78429,-0.1248,-0.32022,-9.75113
16.79433,-0.13871,-0.33564,-9.73587
16.80437,-0.1462,-0.33384,-9.74245
16.8144,-0.15487,-0.33953,-9.75068
16.82444,-0.14829,-0.33878,-9.7643
16.83448,-0.15532,-0.353,-9.76206
16.84451,-0.17148,-0.37275,-9.74066
16.85455,-0.17971,-0.37649,-9.74934
16.86459,-0.17523,-0.37709,-9.78465
16.87462,-0.15996,-0.38053,-9.78555
16.88466,-0.18839,-0.37005,-9.74859
16.8947,-0.19842,-0.35808,-9.74964
16.90473,-0.19273,-0.35165,-9.80306
16.91477,-0.17508,-0.34297,-9.82101
16.92481,-0.17642,-0.31678,-9.76625
16.93484,-0.20156,-0.31349,-9.75054
16.94488,-0.1845,-0.32247,-9.76191
16.95492,-0.13228,-0.33998,-9.74889
16.96495,-0.12869,-0.34671,-9.75682
16.97499,-0.15413,-0.33983,-9.76789
16.98503,-0.16505,-0.3497,-9.75143
16.99506,-0.15562,-0.37245,-9.73033
17.00573,-0.16206,-0.3925,-9.79842
17.01576,-0.18226,-0.39519,-9.76116
17.0258,-0.1851,-0.39444,-9.76086
17.03584,-0.2053,-0.38277,-9.7848
17.04587,-0.20336,-0.37065,-9.78839
17.05591,-0.19827,-0.36392,-9.78151
17.06595,-0.18076,-0.35629,-9.78286
17.07598,-0.17986,-0.33923,-9.79094
17.08602,-0.16101,-0.34821,-9.77837
17.09606,-0.17612,-0.34791,-9.73452
17.10609,-0.15577,-0.33085,-9.7453
17.11613,-0.14814,-0.32651,-9.78286
17.12617,-0.14096,-0.32352,-9.75996
17.1362,-0.145,-0.3102,-9.73946
17.14624,-0.1652,-0.31858,-9.75547
17.15628,-0.17283,-0.32636,-9.74709
17.16631,-0.15682,-0.33474,-9.77642
17.17635,-0.14051,-0.36706,-9.77702
17.18639,-0.17253,-0.36751,-9.79139
17.19642,-0.19019,-0.35793,-9.76251
17.20646,-0.19453,-0.37454,-9.78211
17.2165,-0.19603,-0.38158,-9.76984
17.22653,-0.2056,-0.38367,-9.77523
17.23657,-0.17837,-0.36556,-9.77612
17.24661,-0.15592,-0.35195,-9.76281
17.25664,-0.16625,-0.34551,-9.75697
17.26668,-0.16011,-0.32801,-9.75996
17.27672,-0.15368,-0.31394,-9.77059
17.28675,-0.16924,-0.32726,-9.7652
17.29679,-0.17478,-0.32576,-9.76445
17.30683,-0.1634,-0.32681,-9.7637
17.31686,-0.16535,-0.34192,-9.75712
17.3269,-0.17702,-0.34895,-9.7649
17.33694,-0.17478,-0.34671,-9.76909
17.34697,-0.17882,-0.34746,-9.76879
17.35701,-0.16789,-0.35419,-9.77074
17.36705,-0.17119,-0.34895,-9.77238
17.37708,-0.16954,-0.34866,-9.77433
17.38712,-0.16759,-0.36108,-9.74096
17.39716,-0.15353,-0.37365,-9.75218
17.40719,-0.15622,-0.34566,-9.77268
17.41723,-0.17044,-0.34402,-9.74066
17.42727,-0.19408,-0.35225,-9.75218
17.4373,-0.17912,-0.35135,-9.77597
17.44734,-0.18615,-0.34985,-9.77986
17.45738,-0.17044,-0.33863,-9.75907
17.46741,-0.15862,-0.33264,-9.77403
17.47745,-0.17148,-0.35255,-9.79722
17.48749,-0.16984,-0.36347,-9.73632
17.49752,-0.16999,-0.34955,-9.75652
17.50756,-0.17059,-0.34072,-9.7872
17.5176,-0.15547,-0.34028,-9.77238
17.52763,-0.15562,-0.34521,-9.74694
17.53767,-0.18346,-0.34686,-9.74216
17.54771,-0.17508,-0.36317,-9.77313
17.55774,-0.15368,-0.34402,-9.77089
17.56778,-0.17059,-0.3524,-9.77777
17.57782,-0.17762,-0.34641,-9.77059
17.58785,-0.1863,-0.34791,-9.76296
17.59789,-0.17837,-0.35763,-9.77104
17.60793,-0.15458,-0.36497,-9.78121
17.61796,-0.16924,-0.34641,-9.7637
17.628,-0.17163,-0.35,-9.76954
17.63804,-0.16206,-0.35434,-9.77074
17.64807,-0.18046,-0.35524,-9.76894
17.65811,-0.17927,-0.35165,-9.75772
17.66815,-0.1848,-0.34072,-9.7655
17.67818,-0.15921,-0.33564,-9.76595
17.68822,-0.16819,-0.33878,-9.77149
17.69825,-0.17612,-0.34881,-9.75308
17.70829,-0.17074,-0.36003,-9.74709
17.71833,-0.15862,-0.36601,-9.76041
17.72836,-0.16415,-0.34806,-9.77178
17.7384,-0.16595,-0.35374,-9.77897
17.74844,-0.15892,-0.35913,-9.77104
17.75847,-0.17986,-0.35314,-9.75622
17.76851,-0.17074,-0.35045,-9.78271
17.77855,-0.16879,-0.34701,-9.77986
17.78858,-0.17822,-0.35225,-9.74934
17.79862,-0.19019,-0.36497,-9.74979
17.80866,-0.16281,-0.33743,-9.77867
17.81869,-0.15921,-0.35165,-9.78809
17.82873,-0.17762,-0.35763,-9.76026
17.83877,-0.19109,-0.353,-9.76326
17.8488,-0.15862,-0.3524,-9.77852
17.85884,-0.15428,-0.36078,-9.75697
17.86888,-0.16909,-0.35838,-9.75607
17.87891,-0.17148,-0.35599,-9.77732
17.88895,-0.17552,-0.35314,-9.76041
17.89899,-0.17074,-0.3491,-9.75921
17.90902,-0.17687,-0.34132,-9.78316
17.91906,-0.17927,-0.36377,-9.75143
17.9291,-0.17792,-0.34821,-9.73916
17.93913,-0.15772,-0.35763,-9.77328
17.94917,-0.15562,-0.35479,-9.79333
17.95921,-0.16595,-0.35838,-9.75458
17.96924,-0.17208,-0.34327,-9.7441
17.97928,-0.18271,-0.3512,-9.75024
17.98932,-0.16804,-0.35958,-9.76774
17.99935,-0.1631,-0.34716,-9.77343
18.00939,-0.17014,-0.34596,-9.77912
18.01943,-0.17552,-0.3497,-9.77971
18.02946,-0.17178,-0.34013,-9.76026
18.0395,-0.1869,-0.34252,-9.69981
18.04954,-0.1842,-0.32337,-9.80695
18.05957,-0.14724,-0.3518,-9.80725
18.06961,-0.16595,-0.37619,-9.71971
18.07965,-0.16071,-0.3503,-9.75113
18.08968,-0.17418,-0.33594,-9.76744
18.09972,-0.17134,-0.33249,-9.71971
18.10976,-0.14829,-0.36302,-9.7661
18.11979,-0.18046,-0.35344,-9.80485
18.12983,-0.17552,-0.35434,-9.78046
18.13987,-0.1459,-0.34746,-9.77657
18.1499,-0.18675,-0.34641,-9.79977
18.15994,-0.18645,-0.35644,-9.73677
18.16998,-0.17627,-0.35808,-9.75054
18.18001,-0.15652,-0.36272,-9.74036
18.19005,-0.14335,-0.3497,-9.81443
18.20009,-0.12989,-0.36287,-9.73078
18.21012,-0.19199,-0.35434,-9.74994
18.22016,-0.15622,-0.35045,-9.79408
18.2302,-0.15562,-0.34282,-9.7872
18.24023,-0.17538,-0.35733,-9.74111
18.25027,-0.18031,-0.34312,-9.77388
18.26031,-0.205,-0.34192,-9.75951
18.27034,-0.2065,-0.34566,-9.72959
18.28038,-0.18809,-0.34417,-9.78301
18.29042,-0.19423,-0.34192,-9.77044
18.30045,-0.16475,-0.36212,-9.78091
18.31049,-0.15547,-0.36736,-9.77897
18.32053,-0.1646,-0.36751,-9.75128
18.33056,-0.18241,-0.37604,-9.75039
18.3406,-0.16864,-0.36661,-9.75981
18.35064,-0.15592,-0.36182,-9.77044
18.36067,-0.16729,-0.37379,-9.76625
18.37071,-0.18899,-0.3696,-9.74305
18.38075,-0.17552,-0.34686,-9.75742
18.39078,-0.14889,-0.33624,-9.77478
18.40082,-0.16834,-0.33085,-9.75951
18.41086,-0.17283,-0.33279,-9.76819
18.42089,-0.18001,-0.34132,-9.76505
18.43093,-0.16011,-0.34821,-9.76251
18.44097,-0.15428,-0.35599,-9.7634
18.451,-0.17298,-0.34836,-9.7646
18.46104,-0.16191,-0.36033,-9.76311
18.47108,-0.16086,-0.3708,-9.76969
18.48111,-0.18675,-0.36302,-9.77523
18.49115,-0.18809,-0.35479,-9.75443
18.50119,-0.16759,-0.35554,-9.74814
18.51122,-0.17463,-0.35973,-9.76041
18.52126,-0.16116,-0.36871,-9.79139
18.5313,-0.15981,-0.36018,-9.76251
18.54133,-0.17582,-0.35733,-9.75098
18.55137,-0.16236,-0.35569,-9.76984
18.56141,-0.17508,-0.33279,-9.77717
18.57144,-0.17388,-0.33803,-9.75547
18.58148,-0.17463,-0.34776,-9.74769
18.59152,-0.17867,-0.34417,-9.75128
18.60155,-0.16131,-0.34536,-9.76969
18.61159,-0.15024,-0.33878,-9.77119
18.62163,-0.1637,-0.35509,-9.76849
18.63166,-0.18316,-0.372,-9.73767
18.6417,-0.17523,-0.36841,-9.7634
18.65174,-0.16296,-0.35389,-9.79558
18.66177,-0.17508,-0.34895,-9.76819
18.67181,-0.19019,-0.35943,-9.73976
18.68184,-0.19438,-0.35883,-9.75532
18.69188,-0.16999,-0.36571,-9.79034
18.70192,-0.16325,-0.35524,-9.77313
18.71195,-0.17253,-0.35689,-9.75009
18.72199,-0.1842,-0.34791,-9.77298
18.73203,-0.16939,-0.34477,-9.77971
18.74206,-0.16056,-0.33459,-9.75158
18.7521,-0.15667,-0.34955,-9.72974
18.76214,-0.16879,-0.35808,-9.75981
18.77217,-0.15502,-0.3503,-9.76326
18.78221,-0.16281,-0.33743,-9.77852
18.79225,-0.17837,-0.35255,-9.78794
18.80228,-0.17463,-0.36497,-9.76296
18.81232,-0.19423,-0.36272,-9.74679
18.82236,-0.17687,-0.37365,-9.75966
18.83239,-0.16685,-0.36422,-9.78061
18.84243,-0.17403,-0.36257,-9.76191
18.85247,-0.16535,-0.36826,-9.76041
18.8625,-0.17238,-0.34267,-9.77343
18.87254,-0.18241,-0.34671,-9.77418
18.88258,-0.15757,-0.34222,-9.77493
18.89261,-0.17732,-0.33773,-9.78076
18.90265,-0.17538,-0.34581,-9.76191
18.91269,-0.18106,-0.35569,-9.76445
18.92272,-0.17283,-0.35614,-9.75532
18.93276,-0.16924,-0.34102,-9.76834
18.9428,-0.17523,-0.35105,-9.77762
18.95283,-0.17253,-0.3708,-9.77163
18.96287,-0.15802,-0.36272,-9.7462
18.97291,-0.17807,-0.35808,-9.73452
18.98294,-0.16969,-0.35853,-9.76819
18.99298,-0.17463,-0.34955,-9.76864
19.00302,-0.17508,-0.35973,-9.75996
19.01305,-0.17448,-0.35464,-9.76355
19.02309,-0.16789,-0.33728,-9.76191
19.03313,-0.17328,-0.3506,-9.76281
19.04316,-0.17552,-0.3494,-9.76969
19.0532,-0.16146,-0.34596,-9.76715
19.06324,-0.16625,-0.34791,-9.75832
19.07327,-0.17104,-0.35868,-9.74665
19.08331,-0.16849,-0.35733,-9.75188
19.09335,-0.17463,-0.35015,-9.78555
19.10338,-0.17148,-0.35479,-9.77403
19.11342,-0.1661,-0.3503,-9.76086
19.12346,-0.18465,-0.34596,-9.76834
19.13349,-0.18136,-0.35374,-9.75458
19.14353,-0.17702,-0.35135,-9.75742
19.15357,-0.17089,-0.35718,-9.75413
19.1636,-0.17927,-0.35793,-9.77612
19.17364,-0.16625,-0.35569,-9.76326
19.18368,-0.15113,-0.35494,-9.76101
19.19371,-0.16266,-0.34252,-9.7649
19.20375,-0.16744,-0.33279,-9.74859
19.21379,-0.16804,-0.3509,-9.76056
19.22382,-0.16101,-0.35659,-9.76251
19.23386,-0.17777,-0.34402,-9.77328
19.2439,-0.18241,-0.34985,-9.75473
19.25393,-0.17597,-0.33788,-9.7634
19.26397,-0.18121,-0.34836,-9.77702
19.27401,-0.17433,-0.34551,-9.77762
19.28404,-0.17867,-0.34402,-9.73677
19.29408,-0.17523,-0.34731,-9.77014
19.30412,-0.17074,-0.35225,-9.79184
19.31415,-0.15936,-0.35913,-9.73737
19.32419,-0.16535,-0.35853,-9.75413
19.33423,-0.19363,-0.35689,-9.7875
19.34426,-0.18375,-0.35195,-9.75996
19.3543,-0.17627,-0.35105,-9.7432
19.36434,-0.19288,-0.33743,-9.78211
19.37437,-0.17208,-0.34447,-9.78809
19.38441,-0.15458,-0.34072,-9.73827
19.39445,-0.17687,-0.34836,-9.76116
19.40448,-0.16415,-0.33878,-9.7667
19.41452,-0.15892,-0.35359,-9.76804
19.42456,-0.15517,-0.36093,-9.78465
19.43459,-0.18765,-0.36482,-9.77493
19.44463,-0.19588,-0.36197,-9.75054
19.45467,-0.16385,-0.372,-9.74889
19.4647,-0.1646,-0.38562,-9.79767
19.47474,-0.1637,-0.40522,-9.75847
19.48478,-0.17986,-0.39863,-9.77792
19.49481,-0.17837,-0.37365,-9.76191
19.50485,-0.19677,-0.36736,-9.79064
19.51489,-0.20321,-0.34955,-9.77253
19.52492,-0.21398,-0.34521,-9.76206
19.53496,-0.19079,-0.30721,-9.77418
19.545,-0.15323,-0.2903,-9.78555
19.55503,-0.1462,-0.28491,-9.74425
19.56507,-0.13901,-0.30795,-9.71402
19.57511,-0.10998,-0.31424,-9.70505
19.58514,-0.10804,-0.31798,-9.72869
19.59518,-0.12839,-0.34028,-9.68604
19.60522,-0.15772,-0.35644,-9.86576
19.61525,-0.15039,-0.36377,-9.75682
19.62529,-0.2074,-0.36946,-9.74141
19.63533,-0.19692,-0.38577,-9.77672
19.64536,-0.20889,-0.37634,-9.83523
19.6554,-0.19318,-0.34761,-9.71717
19.66544,-0.21473,-0.3289,-9.73752
19.67547,-0.20411,-0.31005,-9.78765
19.68551,-0.12121,-0.33384,-9.82969
19.69555,-0.09876,-0.30975,-9.71971
19.70558,-0.15443,-0.3111,-9.74305
19.71562,-0.16849,-0.34402,-9.71582
19.72566,-0.1426,-0.33968,-9.7655
19.73569,-0.11732,-0.39085,-9.76834
19.74573,-0.18405,-0.38861,-9.77957
19.75577,-0.23284,-0.36571,-9.71971
19.7658,-0.19722,-0.34207,-9.78106
19.77584,-0.17148,-0.34432,-9.82057
19.78588,-0.20186,-0.36512,-9.76924
19.79591,-0.20845,-0.3726,-9.77163
19.80595,-0.15278,-0.39011,-9.78809
19.81599,-0.14395,-0.36975,-9.75308
19.82602,-0.1658,-0.35958,-9.74575
19.83606,-0.19513,-0.36257,-9.79139
19.8461,-0.17747,-0.36257,-9.76834
19.85613,-0.16221,-0.35733,-9.75787
19.86617,-0.18106,-0.36018,-9.77642
19.87621,-0.16385,-0.33758,-9.76774
19.88624,-0.17582,-0.33504,-9.7435
19.89628,-0.17508,-0.33788,-9.75128
19.90632,-0.16984,-0.3494,-9.79228
19.91635,-0.17523,-0.33968,-9.7854
19.92639,-0.17403,-0.32816,-9.73946
19.93643,-0.15383,-0.31514,-9.75622
19.94646,-0.16206,-0.34058,-9.7646
19.9565,-0.15353,-0.36616,-9.77882
19.96654,-0.14754,-0.38801,-9.75547
19.97657,-0.18361,-0.37394,-9.76984
19.98661,-0.19004,-0.34117,-9.77567
19.99665,-0.2077,-0.34372,-9.75772
20.00668,-0.17837,-0.36123,-9.71343
20.01672,-0.17178,-0.37065,-9.85992
20.02676,-0.12854,-0.39923,-9.76026
20.03679,-0.17942,-0.36766,-9.7239
20.04683,-0.17403,-0.33459,-9.745
20.05686,-0.16819,-0.32397,-9.77687
20.0669,-0.16176,-0.34402,-9.74635
20.07694,-0.17642,-0.34671,-9.77523
20.08698,-0.19947,-0.32397,-9.76026
20.09701,-0.16146,-0.31738,-9.75652
20.10705,-0.15069,-0.29868,-9.73946
20.11709,-0.14081,-0.33235,-9.8472
20.12712,-0.15637,-0.36317,-9.67542
20.13716,-0.18615,-0.37888,-9.7257
20.1472,-0.15413,-0.36811,-9.77717
20.15723,-0.15981,-0.36108,-9.80096
20.16727,-0.186,-0.36227,-9.74859
20.1773,-0.21293,-0.37903,-9.76864
20.18734,-0.21159,-0.36706,-9.77672
20.19738,-0.17732,-0.35195,-9.78091
20.20741,-0.16206,-0.32576,-9.71776
20.21745,-0.18031,-0.31873,-9.81593
20.22749,-0.13737,-0.35389,-9.77912
20.23752,-0.15263,-0.36137,-9.71417
20.24756,-0.16011,-0.34955,-9.72525
20.2576,-0.16281,-0.32232,-9.77942
20.26763,-0.17148,-0.32576,-9.75113
20.27767,-0.15248,-0.35225,-9.7875
20.28771,-0.20066,-0.38143,-9.76131
20.29774,-0.23388,-0.35718,-9.73602
20.30778,-0.19199,-0.34626,-9.8044
20.31782,-0.15966,-0.33594,-9.81383
20.32848,-0.16729,-0.34701,-9.71851
20.33852,-0.18331,-0.35599,-9.75981
20.34856,-0.17313,-0.36272,-9.76969
20.35859,-0.10744,-0.36766,-9.77448
20.36863,-0.12121,-0.37963,-9.73946
20.37867,-0.18181,-0.37858,-9.75188
20.3887,-0.19303,-0.36272,-9.73198
20.39874,-0.18869,-0.35644,-9.78076
20.40878,-0.18061,-0.34866,-9.79647
20.41881,-0.19797,-0.33923,-9.78061
20.42885,-0.20545,-0.3295,-9.73048
20.43889,-0.18091,-0.31933,-9.78241
20.44892,-0.13378,-0.32456,-9.79049
20.45896,-0.14111,-0.3518,-9.75398
20.469,-0.17313,-0.35973,-9.73408
20.47903,-0.17717,-0.34162,-9.78465
20.48907,-0.14186,-0.33519,-9.75622
20.4991,-0.17044,-0.34521,-9.73288
20.50914,-0.18824,-0.34462,-9.78361
20.51918,-0.17358,-0.36467,-9.77238
20.52922,-0.16041,-0.37484,-9.76385
20.53925,-0.16415,-0.36182,-9.75398
20.54929,-0.19034,-0.3726,-9.76415
20.55932,-0.19258,-0.3521,-9.74171
20.56936,-0.18301,-0.3515,-9.79019
20.5794,-0.15667,-0.35,-9.80456
20.58944,-0.17882,-0.36242,-9.76894
20.59947,-0.18346,-0.34955,-9.73198
20.60951,-0.17343,-0.34312,-9.7664
20.61954,-0.1444,-0.37365,-9.77986
20.62958,-0.17163,-0.36227,-9.74859
20.63962,-0.2053,-0.36033,-9.76565
20.64965,-0.21144,-0.34566,-9.79049
20.65969,-0.17657,-0.34282,-9.78645
20.66973,-0.16894,-0.3708,-9.77882
20.67976,-0.18331,-0.38038,-9.7429
20.6898,-0.17403,-0.37739,-9.74635
20.69984,-0.15443,-0.35973,-9.76176
20.70987,-0.1049,-0.36691,-9.76655
20.71991,-0.15098,-0.37454,-9.75203
20.72995,-0.20201,-0.33145,-9.7462
20.73998,-0.17388,-0.3298,-9.79124
20.75002,-0.20396,-0.31364,-9.81548
20.76006,-0.20022,-0.35225,-9.78854
20.77009,-0.21952,-0.33833,-9.75413
20.78013,-0.19707,-0.33324,-9.71477
20.79017,-0.16161,-0.353,-9.75338
20.8002,-0.15353,-0.35973,-9.76325
20.81024,-0.19513,-0.36167,-9.77343
20.82028,-0.17508,-0.36108,-9.76325
20.83031,-0.1658,-0.34641,-9.75098
20.84035,-0.12151,-0.35614,-9.75024
20.85039,-0.11911,-0.37724,-9.74709
20.86042,-0.12914,-0.39489,-9.75428
20.87046,-0.11088,-0.36811,-9.78615
20.8805,-0.14949,-0.34252,-9.77747
20.89053,-0.20635,-0.32157,-9.79603
20.90057,-0.18091,-0.32741,-9.77074
20.91061,-0.17253,-0.33713,-9.74111
20.92064,-0.14979,-0.36482,-9.74919
20.93068,-0.16056,-0.3723,-9.74814
20.94072,-0.15682,-0.34013,-9.7429
20.95075,-0.13946,-0.33459,-9.77388
20.96079,-0.18106,-0.32905,-9.77388
20.97083,-0.19273,-0.3319,-9.78525
20.98086,-0.18375,-0.34881,-9.79767
20.9909,-0.17134,-0.36332,-9.76206
21.00094,-0.17134,-0.36332,-9.76206
21.0116,-0.16101,-0.39534,-9.78884
21.02164,-0.16101,-0.39534,-9.78884
21.03167,-0.18016,-0.38412,-9.77553
21.04171,-0.19034,-0.38741,-9.78121
21.05175,-0.24196,-0.36212,-9.77178
21.06178,-0.2481,-0.35404,-9.78405
21.07182,-0.21503,-0.353,-9.82057
21.08186,-0.19797,-0.34746,-9.77957
21.09189,-0.19947,-0.37529,-9.75892
21.10193,-0.19213,-0.37335,-9.76206
21.11197,-0.18151,-0.34701,-9.74709
21.122,-0.16744,-0.32756,-9.76849
21.13204,-0.15413,-0.34372,-9.76326
21.14208,-0.18735,-0.33459,-9.73438
21.15211,-0.1878,-0.33803,-9.76101
21.16215,-0.15772,-0.33444,-9.79318
21.17219,-0.16385,-0.33893,-9.76251
21.18222,-0.19752,-0.34821,-9.74949
21.19226,-0.2059,-0.35419,-9.77912
21.2023,-0.1866,-0.3512,-9.76071
21.21233,-0.17313,-0.3515,-9.77388
21.22237,-0.22715,-0.35554,-9.87713
21.23241,-0.25019,-0.36302,-9.92202
21.24244,-0.21892,-0.37439,-9.68739
21.25248,-0.32202,-0.42437,-9.80665
21.26252,-0.31304,-0.49126,-9.78555
21.27255,-0.22356,-0.47734,-9.79034
21.28259,-0.0636,-0.43709,-9.70475
21.29263,-0.19662,-0.39759,-9.77627
21.30266,-0.16984,-0.33848,-9.69472
21.3127,0.104,-0.26336,-9.69622
21.32274,0.104,-0.26336,-9.69622
21.33277,-0.00464,-0.23403,-9.68514
21.34281,-0.06375,-0.21249,-9.6425
21.35285,-0.0838,-0.18839,-9.64848
21.36288,-0.09457,-0.20246,-9.82745
21.37292,-0.22311,-0.22715,-9.84825
21.38296,-0.30945,-0.23733,-9.72989
21.39299,-0.23927,-0.2906,-9.76191
21.40303,-0.18765,-0.37724,-9.79857
21.41307,-0.17358,-0.45834,-9.82685
21.4231,-0.17014,-0.52134,-9.78106
21.43314,-0.19288,-0.51011,-9.77149
21.44318,-0.15263,-0.48348,-9.77403
21.45321,-0.15278,-0.45969,-9.80037
21.46325,-0.20066,-0.44487,-9.7851
21.47329,-0.20515,-0.44008,-9.8062
21.48332,-0.1839,-0.37843,-9.75098
21.49336,-0.18465,-0.29598,-9.77433
21.5034,-0.16625,-0.25513,-9.78929
21.51343,-0.17777,-0.22266,-9.73916
21.52347,-0.1658,-0.24256,-9.71612
21.53351,-0.13647,-0.24735,-9.77702
21.54354,-0.12046,-0.25483,-9.79513
21.55358,-0.10265,-0.2873,-9.70699
21.56362,-0.10939,-0.33429,-9.70355
21.57365,-0.12255,-0.37619,-9.77044
21.58369,-0.1251,-0.42362,-9.79034
21.59373,-0.16236,-0.44427,-9.74784
21.60376,-0.2288,-0.42452,-9.78989
21.6138,-0.22805,-0.3934,-9.83254
21.62384,-0.21518,-0.38247,-9.81922
21.63387,-0.19243,-0.3937,-9.7658
21.64391,-0.20156,-0.38921,-9.764
21.65395,-0.18181,-0.38502,-9.77762
21.66398,-0.13752,-0.32711,-9.75338
21.67402,-0.12809,-0.30167,-9.73228
21.68406,-0.17986,-0.27788,-9.73213
21.69409,-0.14201,-0.30047,-9.75622
21.70413,-0.10549,-0.3087,-9.75338
21.71417,-0.09741,-0.33803,-9.74665
21.7242,-0.12405,-0.3506,-9.7465
21.73424,-0.15338,-0.35524,-9.74275
21.74428,-0.16939,-0.35314,-9.76131
21.75431,-0.18929,-0.36212,-9.79722
21.76435,-0.21219,-0.38068,-9.81368
21.77439,-0.20635,-0.37484,-9.7845
21.78442,-0.18076,-0.38831,-9.75054
21.79446,-0.17538,-0.37694,-9.76505
21.8045,-0.16325,-0.36826,-9.78854
21.81453,-0.15921,-0.36646,-9.76415
21.82457,-0.15622,-0.33938,-9.75682
21.83461,-0.15877,-0.32202,-9.76281
21.84464,-0.14814,-0.32651,-9.74066
21.85468,-0.14171,-0.33309,-9.74066
21.86472,-0.13467,-0.34147,-9.75966
21.87475,-0.13946,-0.34686,-9.76924
21.88479,-0.15787,-0.34387,-9.76415
21.89482,-0.18944,-0.33414,-9.74979
21.90486,-0.1866,-0.33998,-9.77807
21.9149,-0.18106,-0.35778,-9.79677
21.92494,-0.18675,-0.37215,-9.76715
21.93497,-0.19109,-0.36706,-9.75443
21.94501,-0.17852,-0.35793,-9.77508
21.95504,-0.15667,-0.36796,-9.75712
21.96508,-0.1444,-0.36137,-9.76505
21.97512,-0.14754,-0.36392,-9.78166
21.98516,-0.16056,-0.34521,-9.76236
21.99519,-0.15143,-0.33923,-9.73722
22.00523,-0.14859,-0.3283,-9.76415
22.01527,-0.15113,-0.33983,-9.76281
22.0253,-0.15293,-0.35629,-9.76475
22.03534,-0.15338,-0.3527,-9.75682
22.04538,-0.18151,-0.3506,-9.77971
22.05541,-0.18226,-0.35704,-9.7664
22.06545,-0.17044,-0.37559,-9.76251
22.07549,-0.17178,-0.36931,-9.79079
22.08552,-0.164,-0.37948,-9.78121
22.09556,-0.16879,-0.36182,-9.75143
22.1056,-0.15637,-0.35539,-9.75921
22.11563,-0.1444,-0.36063,-9.76954
22.12567,-0.15308,-0.34776,-9.76625
22.1357,-0.17193,-0.33369,-9.76655
22.14574,-0.17313,-0.32397,-9.7854
22.15578,-0.1634,-0.33653,-9.78615
22.16582,-0.15233,-0.34357,-9.74111
22.17585,-0.15936,-0.3705,-9.75278
22.18589,-0.1643,-0.36766,-9.78256
22.19593,-0.1664,-0.35793,-9.77642
22.20596,-0.17104,-0.35509,-9.77986
22.216,-0.16834,-0.36871,-9.76505
22.22603,-0.15772,-0.36362,-9.7661
22.23607,-0.1637,-0.35913,-9.7664
22.24611,-0.15458,-0.34866,-9.74964
22.25615,-0.16101,-0.34536,-9.76266
22.26618,-0.17104,-0.32995,-9.75458
22.27622,-0.1664,-0.33968,-9.75383
22.28626,-0.17044,-0.3515,-9.77508
22.29629,-0.16011,-0.35105,-9.77792
22.30633,-0.15323,-0.35374,-9.74709
22.31636,-0.15577,-0.36018,-9.7465
22.3264,-0.14949,-0.36646,-9.76355
22.33644,-0.16146,-0.35374,-9.75682
22.34648,-0.17478,-0.35928,-9.76251
22.35651,-0.17059,-0.34327,-9.76056
22.36655,-0.15966,-0.35883,-9.74096
22.37658,-0.15877,-0.3497,-9.7453
22.38662,-0.16505,-0.34102,-9.79543
22.39666,-0.15009,-0.34192,-9.79333
22.4067,-0.15517,-0.33863,-9.71582
22.41673,-0.17807,-0.35629,-9.68724
22.42677,-0.17089,-0.33803,-9.77493
22.4368,-0.11522,-0.34132,-9.87758
22.44684,-0.10594,-0.35868,-9.84241
22.45688,-0.19049,-0.38098,-9.66779
22.46692,-0.24376,-0.37305,-9.66539
22.47695,-0.14994,-0.34761,-9.81279
22.48699,-0.08604,-0.36093,-9.83658
22.49703,-0.16146,-0.36901,-9.76879
22.50706,-0.23882,-0.35464,-9.75757
22.5171,-0.19767,-0.32711,-9.77283
22.52714,-0.11028,-0.33264,-9.76849
22.53717,-0.14216,-0.3319,-9.76206
22.54721,-0.20246,-0.35823,-9.75188
22.55725,-0.15577,-0.34925,-9.75368
22.56728,-0.09951,-0.36721,-9.78121
22.57732,-0.15054,-0.35644,-9.7661
22.58736,-0.21742,-0.36063,-9.76475
22.59739,-0.18435,-0.35329,-9.73138
22.60743,-0.14605,-0.34043,-9.76131
22.61746,-0.14964,-0.35404,-9.78166
22.6275,-0.2053,-0.35958,-9.76056
22.63754,-0.17328,-0.35449,-9.74455
22.64758,-0.14904,-0.33504,-9.79947
22.65761,-0.16325,-0.33459,-9.76744
22.66765,-0.17792,-0.34626,-9.71058
22.67769,-0.18346,-0.35105,-9.74186
22.68772,-0.12794,-0.3506,-9.78226
22.69776,-0.11971,-0.35359,-9.77942
22.70779,-0.17104,-0.35659,-9.73916
22.71783,-0.18929,-0.35584,-9.76355
22.72787,-0.16939,-0.34895,-9.78136
22.73791,-0.16296,-0.34566,-9.74814
22.74794,-0.17582,-0.34761,-9.7643
22.75798,-0.18121,-0.34746,-9.77882
22.76802,-0.145,-0.34477,-9.76026
22.77805,-0.15652,-0.33818,-9.73797
22.78809,-0.17059,-0.35314,-9.77059
22.79813,-0.1634,-0.36242,-9.78376
22.80816,-0.13737,-0.36242,-9.74051
22.8182,-0.15532,-0.35793,-9.77029
22.82824,-0.16969,-0.34252,-9.78765
22.83827,-0.17403,-0.34447,-9.75892
22.84831,-0.16909,-0.35344,-9.7465
22.85834,-0.17014,-0.35479,-9.77433
22.86838,-0.17762,-0.34417,-9.74395
22.87842,-0.18151,-0.36586,-9.74964
22.88846,-0.14754,-0.35165,-9.80036
22.89849,-0.14545,-0.34791,-9.82745
22.90853,-0.16655,-0.3512,-9.76251
22.91856,-0.19273,-0.35704,-9.74216
22.9286,-0.17014,-0.36003,-9.71747
22.93864,-0.15682,-0.35464,-9.72959
22.94867,-0.16086,-0.35778,-9.75383
22.95871,-0.16715,-0.33354,-9.75473
22.96875,-0.17178,-0.31798,-9.77687
22.97879,-0.15547,-0.31738,-9.80366
22.98882,-0.13991,-0.32905,-9.7857
22.99886,-0.18166,-0.34836,-9.71911
23.00889,-0.1839,-0.37394,-9.70549
23.01893,-0.13108,-0.36811,-9.77193
23.02897,-0.1248,-0.35,-9.82206
23.039,-0.15278,-0.35359,-9.77208
23.04904,-0.2071,-0.35539,-9.7251
23.05908,-0.19004,-0.34521,-9.77208
23.06911,-0.14724,-0.34207,-9.78256
23.07915,-0.14904,-0.34491,-9.75293
23.08919,-0.17508,-0.34462,-9.75712
23.09923,-0.17208,-0.34342,-9.75727
23.10926,-0.14784,-0.34821,-9.77612
23.1193,-0.15892,-0.35135,-9.77717
23.12933,-0.18136,-0.34746,-9.75308
23.13937,-0.18735,-0.35165,-9.74365
23.14941,-0.14979,-0.34776,-9.75652
23.15945,-0.13527,-0.35973,-9.78944
23.16948,-0.16101,-0.36272,-9.77732
23.17952,-0.17403,-0.34955,-9.73797
23.18955,-0.1652,-0.34791,-9.77059
23.19959,-0.16655,-0.34701,-9.7851
23.20963,-0.15981,-0.35674,-9.76415
23.21967,-0.16685,-0.35614,-9.72914
23.2297,-0.17089,-0.35195,-9.77193
23.23974,-0.14156,-0.33878,-9.77463
23.24977,-0.14081,-0.35389,-9.77627
23.25981,-0.17523,-0.35838,-9.76086
23.26985,-0.17373,-0.35733,-9.7664
23.27989,-0.167,-0.34671,-9.7459
23.28992,-0.16325,-0.33758,-9.76789
23.29996,-0.15951,-0.35105,-9.77957
23.30999,-0.1658,-0.33863,-9.73557
23.32003,-0.17642,-0.34491,-9.73976
23.33007,-0.15069,-0.35778,-9.85094
23.3401,-0.14051,-0.33339,-9.85124
23.35014,-0.15921,-0.36018,-9.69697
23.36018,-0.21682,-0.36886,-9.6609
23.37022,-0.16969,-0.36527,-9.79662
23.38025,-0.09951,-0.35404,-9.80381
23.39029,-0.1254,-0.35,-9.77298
23.40032,-0.2044,-0.35778,-9.77313
23.41036,-0.20231,-0.35584,-9.73557
23.4204,-0.15039,-0.3298,-9.75158
23.43043,-0.14784,-0.3301,-9.80156
23.44047,-0.18794,-0.3503,-9.77373
23.45051,-0.19513,-0.34596,-9.73647
23.46055,-0.1444,-0.36227,-9.79273
23.47058,-0.14216,-0.34491,-9.81533
23.48062,-0.186,-0.34342,-9.75009
23.49066,-0.19603,-0.36362,-9.71417
23.50069,-0.16191,-0.35524,-9.78016
23.51073,-0.11357,-0.35225,-9.81832
23.52076,-0.15143,-0.37379,-9.7637
23.5308,-0.19543,-0.3518,-9.71028
23.54084,-0.15772,-0.34806,-9.76041
23.55088,-0.15353,-0.34132,-9.80216
23.56091,-0.16131,-0.34611,-9.7863
23.57095,-0.17807,-0.34566,-9.75682
23.58099,-0.18435,-0.34132,-9.75503
23.59102,-0.14485,-0.34776,-9.78166
23.60106,-0.14605,-0.36571,-9.76655
23.6111,-0.18645,-0.36392,-9.75682
23.62113,-0.18765,-0.35763,-9.7637
23.63117,-0.15532,-0.34297,-9.77867
23.64121,-0.15652,-0.35344,-9.77163
23.65124,-0.18091,-0.35329,-9.75652
23.66128,-0.17463,-0.35674,-9.73737
23.67132,-0.14784,-0.35464,-9.7845
23.68135,-0.15188,-0.34237,-9.79647
23.69139,-0.18301,-0.35389,-9.78585
23.70143,-0.19199,-0.34895,-9.73288
23.71146,-0.18226,-0.35689,-9.75817
23.7215,-0.14859,-0.34761,-9.79318
23.73154,-0.12929,-0.35374,-9.78405
23.74157,-0.17807,-0.35225,-9.75039
23.75161,-0.18361,-0.33788,-9.74829
23.76165,-0.15981,-0.34432,-9.77538
23.77168,-0.145,-0.35733,-9.75772
23.78172,-0.16879,-0.35599,-9.74829
23.79176,-0.1869,-0.3503,-9.75353
23.80179,-0.14664,-0.34701,-9.77597
23.81183,-0.14754,-0.35165,-9.78256
23.82187,-0.18046,-0.34432,-9.75862
23.8319,-0.19812,-0.36377,-9.7444
23.84194,-0.17238,-0.34327,-9.77747
23.85198,-0.1435,-0.35539,-9.78929
23.86201,-0.15473,-0.36018,-9.78226
23.87205,-0.18331,-0.36272,-9.73827
23.88209,-0.16819,-0.33818,-9.74949
23.89212,-0.13737,-0.33983,-9.79214
23.90216,-0.15487,-0.32905,-9.77672
23.9122,-0.17687,-0.34881,-9.74275
23.92223,-0.17418,-0.35973,-9.72974
23.93227,-0.15532,-0.33489,-9.78241
23.94231,-0.15487,-0.35853,-9.78151
23.95234,-0.16729,-0.35778,-9.73677
23.96238,-0.18989,-0.36182,-9.74231
23.97242,-0.15877,-0.35359,-9.77657
23.98245,-0.15652,-0.3524,-9.77986
23.99249,-0.167,-0.36063,-9.75338
24.00253,-0.18854,-0.35344,-9.74919
24.01256,-0.17238,-0.34177,-9.76011
24.0226,-0.14395,-0.35524,-9.77074
24.03264,-0.15996,-0.36871,-9.77089
24.04267,-0.19348,-0.35898,-9.74979
24.05271,-0.17493,-0.35569,-9.75757
24.06275,-0.14739,-0.34387,-9.79722
24.07278,-0.16146,-0.34716,-9.79348
24.08282,-0.18854,-0.36676,-9.75562
24.09286,-0.18106,-0.3503,-9.74754
24.10289,-0.15308,-0.34222,-9.76849
24.11293,-0.14799,-0.35494,-9.77014
24.12297,-0.18121,-0.34776,-9.75877
24.133,-0.18106,-0.3494,-9.76774
24.14304,-0.164,-0.34701,-9.77582
24.15308,-0.16445,-0.33863,-9.7643
24.16311,-0.16969,-0.34955,-9.77702
24.17315,-0.17478,-0.35464,-9.77193
24.18319,-0.16385,-0.34297,-9.76266
24.19322,-0.16999,-0.34536,-9.76385
24.20326,-0.16176,-0.35045,-9.76026
24.2133,-0.1637,-0.34925,-9.69951
24.22333,-0.17762,-0.34372,-9.72764
24.23337,-0.15413,-0.34611,-9.88102
24.24341,-0.11253,-0.32681,-9.94327
24.25344,-0.14904,-0.36841,-9.67198
24.26348,-0.26321,-0.391,-9.54015
24.27352,-0.21473,-0.35225,-9.7667
24.28355,-0.05596,-0.3521,-9.868
24.29359,-0.09158,-0.35,-9.8291
24.30363,-0.22805,-0.3527,-9.77897
24.31366,-0.26351,-0.32801,-9.71298
24.3237,-0.14889,-0.32651,-9.71881
24.33374,-0.09113,-0.34731,-9.81458
24.34377,-0.16954,-0.36152,-9.78525
24.35381,-0.20036,-0.37679,-9.69891
24.36385,-0.12869,-0.3494,-9.78016
24.37388,-0.11298,-0.33025,-9.82999
24.38392,-0.19318,-0.34985,-9.7875
24.39396,-0.22311,-0.37469,-9.6847
24.40399,-0.18256,-0.35554,-9.75697
24.41403,-0.10549,-0.34207,-9.84586
24.42407,-0.12734,-0.35434,-9.77313
24.4341,-0.20455,-0.35404,-9.69756
24.44414,-0.20051,-0.34761,-9.75263
24.45418,-0.14694,-0.32426,-9.80306
24.46421,-0.12929,-0.34072,-9.7661
24.47425,-0.19647,-0.36093,-9.73707
24.48429,-0.20261,-0.34626,-9.76789
24.49432,-0.12061,-0.35195,-9.77089
24.50436,-0.13557,-0.34357,-9.78076
24.5144,-0.19872,-0.34432,-9.77433
24.52443,-0.19423,-0.36407,-9.73438
24.53447,-0.16176,-0.353,-9.73692
24.54451,-0.14694,-0.34207,-9.80156
24.55454,-0.15847,-0.35389,-9.79618
24.56458,-0.17792,-0.35718,-9.7435
24.57462,-0.15906,-0.34581,-9.73138
24.58465,-0.15847,-0.33803,-9.79902
24.59469,-0.17163,-0.35,-9.76939
24.60473,-0.16146,-0.35898,-9.73123
24.61476,-0.17657,-0.36601,-9.745
24.6248,-0.15712,-0.33564,-9.79513
24.63484,-0.14605,-0.33998,-9.78226
24.64487,-0.17986,-0.36661,-9.74395
24.65491,-0.18944,-0.35928,-9.75054
24.66495,-0.16251,-0.35344,-9.77508
24.67498,-0.1453,-0.36182,-9.78271
24.68502,-0.16251,-0.35015,-9.7646
24.69506,-0.18615,-0.3515,-9.74261
24.70509,-0.17552,-0.34372,-9.75248
24.71513,-0.13946,-0.34417,-9.77882
24.72517,-0.14231,-0.3497,-9.75981
24.7352,-0.16834,-0.35763,-9.74844
24.74524,-0.18181,-0.35539,-9.764
24.75528,-0.15637,-0.34671,-9.77388
24.76531,-0.15517,-0.35419,-9.76655
24.77535,-0.17852,-0.35015,-9.7052
24.78539,-0.18346,-0.36452,-9.73168
24.79542,-0.14425,-0.35075,-9.8876
24.80546,-0.10624,-0.33235,-9.8903
24.8155,-0.1878,-0.34536,-9.65043
24.82553,-0.25917,-0.37365,-9.63696
24.83557,-0.1872,-0.33115,-9.8668
24.84561,-0.0612,-0.33429,-9.86815
24.85564,-0.12944,-0.37439,-9.69741
24.86568,-0.25962,-0.38502,-9.7251
24.87572,-0.20276,-0.34836,-9.7878
24.88576,-0.07811,-0.31858,-9.76131
24.89579,-0.13378,-0.34641,-9.75024
24.90583,-0.24511,-0.35659,-9.77702
24.91587,-0.17612,-0.33953,-9.74889
24.9259,-0.0817,-0.34072,-9.77986
24.93594,-0.13093,-0.33609,-9.80755
24.94598,-0.25977,-0.3521,-9.7254
24.95601,-0.19139,-0.35389,-9.72016
24.96605,-0.1049,-0.34791,-9.79947
24.97608,-0.13617,-0.36033,-9.83493
24.98612,-0.19004,-0.37529,-9.73512
24.99616,-0.19647,-0.35629,-9.7043
25.0062,-0.14335,-0.35494,-9.80201
25.01623,-0.15278,-0.34581,-9.81129
25.02627,-0.17388,-0.36152,-9.73078
25.03631,-0.19378,-0.34611,-9.73318
25.04634,-0.15368,-0.33983,-9.79827
25.05638,-0.13512,-0.34117,-9.79513
25.06642,-0.17388,-0.35599,-9.74829
25.07645,-0.18525,-0.36646,-9.75039
25.08649,-0.16101,-0.34432,-9.74919
25.09653,-0.14575,-0.35374,-9.77193
25.10656,-0.16625,-0.35763,-9.78166
25.1166,-0.17672,-0.36347,-9.78959
25.12664,-0.15712,-0.36048,-9.75862
25.13667,-0.15218,-0.33624,-9.74709
25.14671,-0.17403,-0.3506,-9.80321
25.15675,-0.15981,-0.36317,-9.79124
25.16678,-0.15323,-0.35943,-9.73842
25.17682,-0.17298,-0.36601,-9.73228
25.18686,-0.16984,-0.34985,-9.80171
25.19689,-0.15652,-0.35,-9.76595
25.20693,-0.16535,-0.35404,-9.74859
25.21697,-0.17882,-0.3512,-9.76116
25.227,-0.17657,-0.35509,-9.77478
25.23704,-0.14694,-0.35644,-9.7661
25.24708,-0.14799,-0.34806,-9.75338
25.25711,-0.18899,-0.35045,-9.78016
25.26715,-0.1839,-0.34821,-9.76834
25.27719,-0.15009,-0.34282,-9.76206
25.28722,-0.15413,-0.34551,-9.77942
25.29726,-0.17253,-0.35075,-9.77163
25.3073,-0.17119,-0.36033,-9.74934
25.31733,-0.16266,-0.34013,-9.75652
25.32737,-0.15083,-0.34656,-9.78585
25.33741,-0.15996,-0.34462,-9.7655
25.34744,-0.17403,-0.3521,-9.75652
25.35748,-0.17148,-0.34551,-9.76311
25.36752,-0.16296,-0.35778,-9.7438
25.37755,-0.16789,-0.36167,-9.74111
25.38759,-0.17523,-0.35554,-9.75368
25.39763,-0.16325,-0.34387,-9.79273
25.40766,-0.15398,-0.36317,-9.75892
25.4177,-0.17059,-0.36287,-9.75248
25.42774,-0.1851,-0.35015,-9.74096
25.43777,-0.17403,-0.3491,-9.76744
25.44781,-0.15742,-0.35943,-9.75188
25.45785,-0.16041,-0.35823,-9.73333
25.46788,-0.167,-0.34866,-9.75443
25.47792,-0.17448,-0.34536,-9.81443
25.48796,-0.13512,-0.34955,-9.85394
25.49799,-0.13273,-0.35359,-9.79363
25.50803,-0.18914,-0.37335,-9.7043
25.51807,-0.18959,-0.36916,-9.71417
25.5281,-0.13273,-0.36212,-9.77074
25.53814,-0.1242,-0.36137,-9.79662
25.54818,-0.15203,-0.3518,-9.76894
25.55821,-0.21323,-0.33414,-9.74709
25.56825,-0.18211,-0.32426,-9.7465
25.57829,-0.14171,-0.32337,-9.7655
25.58832,-0.16595,-0.34477,-9.76834
25.59836,-0.1664,-0.35539,-9.74889
25.6084,-0.15218,-0.36377,-9.75278
25.61843,-0.14679,-0.35105,-9.79199
25.62847,-0.14964,-0.35733,-9.78106
25.63851,-0.18001,-0.34866,-9.74904
25.64854,-0.19812,-0.35404,-9.74964
25.65858,-0.16325,-0.35599,-9.79647
25.66862,-0.15203,-0.35255,-9.79677
25.67865,-0.16595,-0.35344,-9.76101
25.68869,-0.18331,-0.35255,-9.75832
25.69873,-0.16535,-0.3518,-9.75503
25.70876,-0.1459,-0.33713,-9.75473
25.7188,-0.15757,-0.34716,-9.76326
25.72884,-0.16535,-0.34821,-9.76595
25.73887,-0.16325,-0.35015,-9.75218
25.74891,-0.15203,-0.34581,-9.76565
25.75895,-0.15398,-0.33384,-9.77986
25.76898,-0.17612,-0.35539,-9.75532
25.77902,-0.17238,-0.36137,-9.71956
25.78906,-0.17163,-0.3515,-9.76475
25.79909,-0.16266,-0.36721,-9.78809
25.80913,-0.15607,-0.36736,-9.76984
25.81917,-0.16789,-0.35359,-9.75069
25.8292,-0.1655,-0.33968,-9.78465
25.83924,-0.15877,-0.35225,-9.7667
25.84928,-0.16296,-0.35105,-9.73228
25.85931,-0.17822,-0.35165,-9.76849
25.86935,-0.17029,-0.34671,-9.78136
25.87939,-0.14635,-0.35359,-9.75398
25.88942,-0.17927,-0.34506,-9.7658
25.89946,-0.1851,-0.36571,-9.79169
25.9095,-0.16101,-0.36646,-9.7441
25.91953,-0.16625,-0.35674,-9.74515
25.92957,-0.1462,-0.36063,-9.80949
25.93961,-0.15532,-0.34447,-9.79677
25.94964,-0.17358,-0.34207,-9.76625
25.95968,-0.16266,-0.34043,-9.76086
25.96972,-0.16131,-0.34028,-9.76116
25.97975,-0.14859,-0.3506,-9.75966
25.98979,-0.15353,-0.35524,-9.74724
25.99983,-0.1652,-0.34806,-9.76804
26.00986,-0.15951,-0.34806,-9.77014
26.0199,-0.16385,-0.3497,-9.75158
26.02994,-0.17014,-0.35569,-9.74231
26.03997,-0.16131,-0.36108,-9.76894
26.05001,-0.16041,-0.35075,-9.75263
26.06005,-0.15188,-0.34955,-9.75697
26.07008,-0.15278,-0.3512,-9.75383
26.08012,-0.17897,-0.35389,-9.74515
26.09016,-0.17104,-0.35778,-9.76565
26.10019,-0.1435,-0.35015,-9.76146
26.11023,-0.15383,-0.34821,-9.75338
26.12027,-0.17268,-0.3494,-9.7224
26.1303,-0.17538,-0.34656,-9.60943
26.14034,-0.17882,-0.34881,-9.81683
26.15038,-0.12375,-0.33459,-9.94596
26.16041,-0.145,-0.31603,-10.06507
26.17045,-0.11747,-0.36347,-9.64744
26.18049,-0.31723,-0.41046,-9.44857
26.19052,-0.25842,-0.3735,-9.59162
26.20056,-0.04684,-0.37769,-9.96616
26.2106,-0.01676,-0.32845,-9.94147
26.22063,-0.19947,-0.35195,-9.77792
26.23067,-0.32621,-0.3301,-9.7037
26.24071,-0.20979,-0.31723,-9.69472
26.25074,-0.07332,-0.34417,-9.78151
26.26078,-0.1248,-0.38547,-9.79079
26.27082,-0.2065,-0.38876,-9.71567
26.28085,-0.13048,-0.36123,-9.77942
26.29089,-0.11118,-0.32726,-9.83703
26.30093,-0.2059,-0.34222,-9.81293
26.31096,-0.25349,-0.36377,-9.64908
26.321,-0.22057,-0.35105,-9.71851
26.33104,-0.07946,-0.34881,-9.85304
26.34107,-0.11058,-0.33878,-9.83329
26.35111,-0.20755,-0.33878,-9.65387
26.36115,-0.21323,-0.34207,-9.7444
26.37118,-0.14231,-0.31978,-9.80919
26.38122,-0.11821,-0.33968,-9.76415
26.39126,-0.17822,-0.36586,-9.72929
26.4013,-0.20007,-0.36257,-9.75203
26.41133,-0.12629,-0.35314,-9.79199
26.42137,-0.12076,-0.35165,-9.77837
26.43141,-0.18959,-0.35434,-9.79827
26.44144,-0.20276,-0.3491,-9.74799
26.45148,-0.16251,-0.34866,-9.70954
26.46152,-0.14934,-0.34791,-9.76206
26.47155,-0.15951,-0.36018,-9.83224
26.48159,-0.17328,-0.35569,-9.75143
26.49163,-0.15278,-0.34013,-9.73243
26.50166,-0.14799,-0.34312,-9.77672
26.5117,-0.16176,-0.35449,-9.78106
26.52174,-0.15981,-0.36242,-9.72106
26.53177,-0.17612,-0.35524,-9.73093
26.54181,-0.17523,-0.33339,-9.79633
26.55185,-0.15697,-0.33354,-9.78196
26.56188,-0.17792,-0.34536,-9.79812
26.57192,-0.164,-0.34267,-9.75323
26.58196,-0.16819,-0.35823,-9.69412
26.59199,-0.17074,-0.36796,-9.75697
26.60203,-0.13587,-0.33758,-9.88297
26.61207,-0.14635,-0.32621,-9.93923
26.6221,-0.15936,-0.36197,-9.65896
26.63214,-0.25139,-0.37724,-9.53147
26.64218,-0.21293,-0.36272,-9.76625
26.65221,-0.0202,-0.34521,-10.00253
26.66225,-0.06015,-0.3527,-9.81084
26.67229,-0.2888,-0.36197,-9.59746
26.68232,-0.30317,-0.33504,-9.7019
26.69236,-0.10235,-0.31289,-9.8463
26.7024,-0.01541,-0.33743,-9.84301
26.71243,-0.18375,-0.38382,-9.74305
26.72247,-0.27997,-0.38711,-9.66614
26.73251,-0.13138,-0.34731,-9.75338
26.74254,-0.05776,-0.3298,-9.87743
26.75258,-0.19692,-0.36182,-9.79288
26.76262,-0.27294,-0.37035,-9.65357
26.77265,-0.16969,-0.35973,-9.74859
26.78269,-0.05522,-0.34402,-9.86875
26.79273,-0.12465,-0.35,-9.77553
26.80276,-0.26336,-0.35704,-9.65103
26.8128,-0.21697,-0.3491,-9.77747
26.82284,-0.10325,-0.3078,-9.86875
26.83287,-0.12824,-0.34043,-9.78211
26.84291,-0.21967,-0.36467,-9.69891
26.85295,-0.2083,-0.36601,-9.73752
26.86298,-0.10265,-0.35748,-9.79109
26.87302,-0.10101,-0.34895,-9.80904
26.88306,-0.2047,-0.33668,-9.75368
26.89309,-0.2258,-0.34357,-9.73228
26.90313,-0.14021,-0.34566,-9.76475
26.91317,-0.1242,-0.3524,-9.80366
26.9232,-0.16236,-0.37185,-9.76131
26.93324,-0.19109,-0.35494,-9.73093
26.94328,-0.14889,-0.33743,-9.74216
26.95331,-0.13363,-0.33294,-9.8047
26.96335,-0.16625,-0.34686,-9.77597
26.97339,-0.19677,-0.36497,-9.72959
26.98342,-0.164,-0.36347,-9.75248
26.99346,-0.14545,-0.33818,-9.7866
27.0035,-0.17822,-0.35285,-9.78645
27.01353,-0.17403,-0.35329,-9.7447
27.02357,-0.17463,-0.34821,-9.73767
27.03361,-0.14994,-0.35629,-9.7878
27.04364,-0.13647,-0.35,-9.77957
27.05368,-0.18151,-0.36302,-9.73138
27.06372,-0.17223,-0.34806,-9.75218
27.07375,-0.15966,-0.33713,-9.82386
27.08379,-0.13228,-0.33668,-9.81219
27.09383,-0.15936,-0.36018,-9.7236
27.10386,-0.20755,-0.37005,-9.71896
27.1139,-0.17912,-0.36152,-9.7845
27.12394,-0.12644,-0.35225,-9.79722
27.13397,-0.16759,-0.34641,-9.74261
27.14401,-0.20904,-0.35359,-9.73153
27.15405,-0.18346,-0.35165,-9.79079
27.16408,-0.12884,-0.34402,-9.82969
27.17412,-0.1462,-0.35763,-9.78166
27.18416,-0.21847,-0.35898,-9.72151
27.19419,-0.19363,-0.34417,-9.74799
27.20423,-0.12166,-0.33833,-9.80845
27.21427,-0.13677,-0.35404,-9.79423
27.2243,-0.18735,-0.36467,-9.73333
27.23434,-0.18899,-0.35285,-9.74919
27.24438,-0.12854,-0.34656,-9.78495
27.25442,-0.12944,-0.33833,-9.79139
27.26445,-0.18705,-0.34536,-9.74949
27.27449,-0.19617,-0.33848,-9.73707
27.28453,-0.15383,-0.3497,-9.78046
27.29456,-0.12465,-0.36108,-9.78585
27.3046,-0.17148,-0.36033,-9.75757
27.31464,-0.20081,-0.35689,-9.7245
27.32467,-0.15652,-0.3521,-9.7655
27.33471,-0.14066,-0.34222,-9.80231
27.34475,-0.16999,-0.34656,-9.78615
27.35478,-0.18196,-0.35988,-9.73587
27.36482,-0.1634,-0.35599,-9.74889
27.37486,-0.1453,-0.34491,-9.78765
27.38489,-0.15338,-0.3497,-9.77149
27.39493,-0.18151,-0.34851,-9.74305
27.40497,-0.18854,-0.33893,-9.75263
27.415,-0.15682,-0.34402,-9.79707
27.42504,-0.1429,-0.36078,-9.77762
27.43508,-0.18256,-0.34761,-9.74889
27.44511,-0.19094,-0.36751,-9.74799
27.45515,-0.1652,-0.36078,-9.75951
27.46519,-0.15847,-0.34372,-9.7854
27.47522,-0.17942,-0.33743,-9.7851
27.48526,-0.17657,-0.34252,-9.76071
27.4953,-0.15502,-0.34866,-9.74724
27.50533,-0.15772,-0.34447,-9.77912
27.51537,-0.15652,-0.35434,-9.78076
27.52541,-0.16849,-0.36407,-9.75667
27.53544,-0.1661,-0.35614,-9.76326
27.54548,-0.16176,-0.34043,-9.79124
27.55552,-0.16475,-0.3524,-9.7649
27.56555,-0.17493,-0.34746,-9.74201
27.57559,-0.17238,-0.353,-9.75802
27.58563,-0.16056,-0.34087,-9.79453
27.59566,-0.15652,-0.32756,-9.78391
27.6057,-0.16535,-0.36601,-9.75323
27.61574,-0.1863,-0.35853,-9.76311
27.62577,-0.14111,-0.34177,-9.7872
27.63581,-0.14799,-0.3515,-9.71642
27.64585,-0.18196,-0.35599,-9.71118
27.65588,-0.16849,-0.36063,-9.79857
27.66592,-0.15083,-0.33264,-9.92501
27.67596,-0.11971,-0.34402,-9.79767
27.68599,-0.22745,-0.37858,-9.54448
27.69603,-0.27384,-0.36003,-9.69876
27.70607,-0.08664,-0.3289,-9.95719
27.7161,-0.03711,-0.34626,-9.86531
27.72614,-0.21159,-0.3711,-9.6229
27.73618,-0.32337,-0.37484,-9.66764
27.74621,-0.17792,-0.31903,-9.85109
27.75625,-0.00045,-0.32052,-9.85528
27.76629,-0.15787,-0.37155,-9.73258
27.77632,-0.31005,-0.37963,-9.67243
27.78636,-0.15862,-0.33668,-9.7658
27.7964,-0.04025,-0.3108,-9.846
27.80644,-0.15218,-0.34791,-9.79722
27.81647,-0.2879,-0.38681,-9.68006
27.82651,-0.20426,-0.34402,-9.69891
27.83655,-0.05372,-0.32202,-9.87054
27.84658,-0.11717,-0.3512,-9.84032
27.85662,-0.25064,-0.36093,-9.6636
27.86666,-0.23014,-0.35314,-9.70609
27.87669,-0.10295,-0.32202,-9.868
27.88673,-0.11732,-0.35479,-9.81428
27.89677,-0.20007,-0.37783,-9.67093
27.9068,-0.23014,-0.36706,-9.70445
27.91684,-0.12734,-0.34866,-9.84271
27.92688,-0.0832,-0.34806,-9.83403
27.93691,-0.19932,-0.36242,-9.71298
27.94695,-0.24032,-0.35883,-9.70101
27.95699,-0.15278,-0.34596,-9.78241
27.96702,-0.08739,-0.34222,-9.79064
27.97706,-0.17313,-0.35823,-9.77807
27.9871,-0.22012,-0.35629,-9.74156
27.99713,-0.15936,-0.33639,-9.75682
28.00717,-0.11208,-0.33848,-9.78435
28.01721,-0.15832,-0.35838,-9.80066
28.02724,-0.20126,-0.3702,-9.75024
28.03728,-0.17029,-0.36018,-9.72151
28.04732,-0.13886,-0.33579,-9.79737
28.05735,-0.15368,-0.34491,-9.79917
28.06739,-0.19348,-0.34881,-9.73019
28.07743,-0.17882,-0.36347,-9.71642
28.08746,-0.14694,-0.34776,-9.80037
28.0975,-0.14245,-0.33728,-9.78495
28.10754,-0.18959,-0.3503,-9.73856
28.11757,-0.19737,-0.34955,-9.71791
28.12761,-0.15398,-0.34058,-9.78241
28.13765,-0.12151,-0.3515,-9.77732
28.14768,-0.17986,-0.36616,-9.76939
28.15772,-0.18226,-0.33983,-9.83598
28.16776,-0.12899,-0.34746,-9.75263
28.17779,-0.19543,-0.36392,-9.62783
28.18783,-0.21383,-0.35958,-9.77927
28.19787,-0.11866,-0.34117,-9.89688
28.2079,-0.10684,-0.34746,-9.75443
28.21794,-0.186,-0.37589,-9.64459
28.22798,-0.24451,-0.35569,-9.75173
28.23801,-0.12719,-0.3322,-9.846
28.24805,-0.05716,-0.33728,-9.79154
28.25809,-0.20036,-0.36048,-9.7254
28.26812,-0.26261,-0.36392,-9.72914
28.27816,-0.14081,-0.34417,-9.77463
28.2882,-0.06689,-0.33459,-9.78286
28.29823,-0.17029,-0.3509,-9.786
28.30827,-0.24541,-0.3732,-9.69846
28.31831,-0.16161,-0.34177,-9.73587
28.32834,-0.06928,-0.32845,-9.83867
28.33838,-0.15772,-0.36242,-9.77717
28.34842,-0.23837,-0.36272,-9.6618
28.35845,-0.17358,-0.35823,-9.74515
28.36849,-0.1043,-0.33205,-9.86112
28.37853,-0.14006,-0.34536,-9.75907
28.38856,-0.23538,-0.37035,-9.66853
28.3986,-0.20081,-0.34836,-9.76281
28.40864,-0.09637,-0.32486,-9.85932
28.41867,-0.12974,-0.34925,-9.77358
28.42871,-0.23658,-0.36661,-9.7019
28.43875,-0.20126,-0.3527,-9.75323
28.44878,-0.12719,-0.35135,-9.80755
28.45882,-0.10594,-0.34237,-9.79453
28.46886,-0.20411,-0.36347,-9.75323
28.47889,-0.21997,-0.35329,-9.73991
28.48893,-0.11791,-0.34821,-9.76131
28.49897,-0.11223,-0.34043,-9.78929
28.509,-0.19423,-0.35015,-9.75413
28.51904,-0.20007,-0.35973,-9.72555
28.52908,-0.14201,-0.34432,-9.75951
28.53911,-0.12255,-0.34058,-9.81967
28.54915,-0.16879,-0.35823,-9.75966
28.55919,-0.22655,-0.36512,-9.71193
28.56923,-0.16191,-0.35045,-9.7667
28.57926,-0.12869,-0.33609,-9.8071
28.5893,-0.15966,-0.35135,-9.77478
28.59933,-0.18001,-0.36123,-9.73557
28.60937,-0.17298,-0.34985,-9.72809
28.61941,-0.14874,-0.34925,-9.78091
28.62945,-0.15323,-0.35823,-9.78959
28.63948,-0.18809,-0.35329,-9.7453
28.64952,-0.19438,-0.35689,-9.74231
28.65955,-0.16475,-0.34566,-9.78405
28.66959,-0.14799,-0.34072,-9.79094
28.67963,-0.16505,-0.35359,-9.73901
28.68967,-0.18166,-0.36422,-9.73497
28.6997,-0.15083,-0.35434,-9.75757
28.70974,-0.14425,-0.34701,-9.7673
28.71978,-0.17343,-0.34895,-9.80066
28.72981,-0.16146,-0.34072,-9.81967
28.73985,-0.14111,-0.3512,-9.69532
28.74989,-0.19722,-0.35808,-9.67691
28.75992,-0.16804,-0.34611,-9.85783
28.76996,-0.11028,-0.34716,-9.83344
28.78,-0.15622,-0.36586,-9.69367
28.79003,-0.22206,-0.36512,-9.71343
28.80007,-0.18765,-0.32681,-9.83688
28.81011,-0.08978,-0.33998,-9.79109
28.82014,-0.14739,-0.34477,-9.72974
28.83018,-0.24107,-0.36018,-9.74874
28.84022,-0.1848,-0.34521,-9.78405
28.85025,-0.08918,-0.33055,-9.77283
28.86029,-0.15727,-0.34072,-9.7839
28.87033,-0.24122,-0.36392,-9.75697
28.88036,-0.18331,-0.36108,-9.7432
28.8904,-0.1037,-0.34521,-9.78151
28.90044,-0.145,-0.35285,-9.81593
28.91047,-0.21967,-0.36332,-9.71088
28.92051,-0.186,-0.3512,-9.70864
28.93055,-0.13004,-0.34132,-9.81787
28.94058,-0.13108,-0.34387,-9.82401
28.95062,-0.18869,-0.37604,-9.68993
28.96066,-0.20111,-0.3518,-9.72899
28.97069,-0.13572,-0.34087,-9.83403
28.98073,-0.11687,-0.34806,-9.79333
28.99077,-0.19737,-0.36347,-9.71597
29.0008,-0.20815,-0.35494,-9.74964
29.01084,-0.13078,-0.33534,-9.80695
29.02088,-0.11776,-0.34881,-9.77089
29.03091,-0.18361,-0.36886,-9.75517
29.04095,-0.22251,-0.35748,-9.75682
29.05099,-0.1438,-0.35419,-9.76715
29.06102,-0.11238,-0.33414,-9.77702
29.07106,-0.16834,-0.33758,-9.77747
29.0811,-0.19632,-0.36272,-9.75233
29.09113,-0.15966,-0.35374,-9.74575
29.10117,-0.13662,-0.33459,-9.78435
29.11121,-0.16789,-0.35704,-9.79677
29.12124,-0.19707,-0.35674,-9.74066
29.13128,-0.16191,-0.34761,-9.74724
29.14132,-0.12794,-0.33848,-9.80081
29.15135,-0.14859,-0.35524,-9.77373
29.16139,-0.17298,-0.372,-9.73737
29.17143,-0.17119,-0.35255,-9.74006
29.18146,-0.15098,-0.33863,-9.78196
29.1915,-0.13961,-0.34252,-9.78809
29.20154,-0.164,-0.33683,-9.75772
29.21157,-0.16999,-0.34162,-9.73228
29.22161,-0.17672,-0.34477,-9.76221
29.23165,-0.16535,-0.3491,-9.79468
29.24168,-0.15263,-0.34686,-9.76266
29.25172,-0.18316,-0.35075,-9.72614
29.26176,-0.18465,-0.35344,-9.75488
29.27179,-0.13797,-0.3521,-9.79662
29.28183,-0.15188,-0.34417,-9.77597
29.29187,-0.18001,-0.35644,-9.74261
29.30191,-0.18989,-0.34821,-9.76011
29.31194,-0.16355,-0.3497,-9.77852
29.32198,-0.14126,-0.33848,-9.76131
29.33201,-0.17672,-0.34851,-9.74799
29.34205,-0.19558,-0.35554,-9.77119
29.35209,-0.16086,-0.34387,-9.77792
29.36212,-0.15413,-0.34192,-9.76475
29.37216,-0.16954,-0.35434,-9.76625
29.3822,-0.19019,-0.34462,-9.74365
29.39224,-0.15398,-0.34731,-9.74874
29.40227,-0.1435,-0.3515,-9.7848
29.41231,-0.16325,-0.35135,-9.78226
29.42234,-0.17193,-0.35823,-9.73812
29.43238,-0.17119,-0.35225,-9.73931
29.44242,-0.14889,-0.33668,-9.76909
29.45245,-0.15921,-0.33414,-9.81099
29.46249,-0.15951,-0.35479,-9.77074
29.47253,-0.17822,-0.35704,-9.69801
29.48257,-0.20081,-0.34596,-9.75128
29.4926,-0.14066,-0.35404,-9.84077
29.50264,-0.11791,-0.35389,-9.7634
29.51268,-0.1869,-0.37035,-9.69517
29.52271,-0.2047,-0.36018,-9.74844
29.53275,-0.14844,-0.33983,-9.80456
29.54279,-0.1013,-0.34761,-9.79438
29.55282,-0.18226,-0.35344,-9.72719
29.56286,-0.22386,-0.35554,-9.75173
29.5729,-0.13797,-0.34746,-9.77313
29.58293,-0.10774,-0.32681,-9.77747
29.59297,-0.18435,-0.3515,-9.76326
29.60301,-0.21159,-0.36616,-9.73512
29.61304,-0.15218,-0.34432,-9.75413
29.62308,-0.11163,-0.34058,-9.80246
29.63312,-0.16086,-0.35599,-9.78346
29.64315,-0.21353,-0.36482,-9.72225
29.65319,-0.16879,-0.35973,-9.74694
29.66323,-0.13018,-0.33414,-9.8273
29.67326,-0.167,-0.34102,-9.77134
29.6833,-0.1878,-0.3503,-9.70505
29.69334,-0.17792,-0.34177,-9.74066
29.70337,-0.14799,-0.34566,-9.80081
29.71341,-0.15293,-0.3494,-9.75667
29.72345,-0.19498,-0.34506,-9.73677
29.73348,-0.1845,-0.35494,-9.76475
29.74352,-0.14066,-0.34551,-9.79558
29.75356,-0.15487,-0.34895,-9.77223
29.76359,-0.18989,-0.36287,-9.74679
29.77363,-0.2065,-0.35434,-9.75473
29.78367,-0.1438,-0.34596,-9.76655
29.7937,-0.14874,-0.34851,-9.76774
29.80374,-0.18735,-0.36048,-9.76939
29.81378,-0.17762,-0.35524,-9.76385
29.82381,-0.14874,-0.35359,-9.74216
29.83385,-0.15936,-0.35,-9.77014
29.84389,-0.19109,-0.35374,-9.79677
29.85392,-0.17792,-0.36512,-9.74949
29.86396,-0.15906,-0.35988,-9.72495
29.874,-0.15742,-0.353,-9.78046
29.88403,-0.16715,-0.34536,-9.78525
29.89407,-0.16999,-0.36182,-9.73198
29.90411,-0.16221,-0.35988,-9.74156
29.91414,-0.17074,-0.34581,-9.79273
29.92418,-0.15383,-0.34821,-9.77732
29.93422,-0.16625,-0.36302,-9.74201
29.94425,-0.18271,-0.35285,-9.77418
29.95429,-0.1664,-0.34506,-9.786
29.96433,-0.15622,-0.3524,-9.77223
29.97436,-0.16909,-0.3494,-9.75577
29.9844,-0.17942,-0.34701,-9.75936
29.99444,-0.17732,-0.35584,-9.73931
30.00447,-0.15487,-0.3524,-9.73168
30.01451,-0.1667,-0.33579,-9.69846
30.02455,-0.16879,-0.34895,-9.82565
30.03458,-0.14949,-0.35793,-9.86426
30.04462,-0.14201,-0.32741,-9.95404
30.05466,-0.11851,-0.37978,-9.63262
30.06469,-0.30107,-0.38666,-9.44258
30.07473,-0.19827,-0.36227,-9.805
30.08477,-0.0006,-0.34506,-10.02662
30.0948,-0.09068,-0.36871,-9.78271
30.10484,-0.27743,-0.35629,-9.67362
30.11488,-0.29284,-0.32292,-9.75383
30.12491,-0.13333,-0.3105,-9.75293
30.13495,-0.03621,-0.35599,-9.80815
30.14499,-0.19558,-0.3925,-9.76071
30.15503,-0.25094,-0.3711,-9.70145
30.16506,-0.08948,-0.33549,-9.78765
30.1751,-0.10235,-0.32172,-9.85812
30.18514,-0.21084,-0.35629,-9.76715
30.19517,-0.24705,-0.37365,-9.65656
30.20521,-0.1634,-0.35554,-9.74979
30.21525,-0.04923,-0.3491,-9.89404
30.22528,-0.14141,-0.35165,-9.78151
30.23532,-0.25379,-0.35464,-9.6416
30.24536,-0.19692,-0.34252,-9.76969
30.25539,-0.1257,-0.34282,-9.84211
30.26543,-0.13123,-0.3506,-9.75697
30.27547,-0.18914,-0.36931,-9.7245
30.2855,-0.19752,-0.37065,-9.77104
30.29554,-0.1013,-0.35733,-9.80051
30.30558,-0.12585,-0.33833,-9.79288
30.31561,-0.21727,-0.33758,-9.74889
30.32565,-0.19992,-0.34447,-9.72181
30.33569,-0.15398,-0.35374,-9.77687
30.34572,-0.1248,-0.35674,-9.79603
30.35576,-0.17119,-0.36212,-9.79139
30.3658,-0.19887,-0.36826,-9.71462
30.37583,-0.15906,-0.34566,-9.74246
30.38587,-0.13662,-0.34252,-9.79588
30.39591,-0.16715,-0.35285,-9.80351
30.40594,-0.17732,-0.35704,-9.70894
30.41598,-0.17702,-0.34192,-9.73423
30.42602,-0.15951,-0.33175,-9.80201
30.43605,-0.15443,-0.33998,-9.79767
30.44609,-0.1851,-0.35614,-9.73048
30.45613,-0.1851,-0.36302,-9.75128
30.46616,-0.15547,-0.35344,-9.77448
30.4762,-0.15098,-0.34282,-9.77478
30.48624,-0.15308,-0.34851,-9.76924
30.49627,-0.17822,-0.34686,-9.75966
30.50631,-0.15637,-0.3322,-9.73512
30.51635,-0.14365,-0.35344,-9.72076
30.52638,-0.17463,-0.34866,-9.75368
30.53642,-0.1658,-0.35285,-9.83867
30.54646,-0.1435,-0.34207,-9.82775
30.55649,-0.18121,-0.34836,-9.73871
30.56653,-0.20007,-0.35509,-9.71507
30.57657,-0.1661,-0.35509,-9.73348
30.5866,-0.13812,-0.36751,-9.78211
30.59664,-0.11762,-0.36556,-9.80411
30.60668,-0.17089,-0.36048,-9.77134
30.61671,-0.19827,-0.34372,-9.72166
30.62675,-0.17148,-0.32247,-9.76355
30.63679,-0.16325,-0.34162,-9.77044
30.64682,-0.17313,-0.35045,-9.77538
30.65686,-0.15353,-0.35539,-9.77343
30.6669,-0.15862,-0.35329,-9.75727
30.67693,-0.15832,-0.36152,-9.74545
30.68697,-0.17897,-0.34806,-9.75308
30.69701,-0.18316,-0.34686,-9.79543
30.70704,-0.15547,-0.35015,-9.77687
30.71708,-0.15652,-0.36197,-9.74949
30.72712,-0.17134,-0.35359,-9.74904
30.73715,-0.15981,-0.35255,-9.79124
30.74719,-0.15368,-0.35689,-9.77223
30.75723,-0.17298,-0.34641,-9.76505
30.76726,-0.18331,-0.33519,-9.75143
30.7773,-0.17044,-0.35314,-9.75936
30.78734,-0.12869,-0.36302,-9.77208
30.79737,-0.1432,-0.35494,-9.78705
30.80741,-0.17403,-0.35793,-9.74126
30.81745,-0.1857,-0.35464,-9.74111
30.82748,-0.16176,-0.34297,-9.77822
30.83752,-0.15323,-0.34536,-9.79588
30.84756,-0.17702,-0.35853,-9.75622
30.8576,-0.18361,-0.37185,-9.73108
30.86763,-0.1646,-0.34491,-9.77612
30.87767,-0.15487,-0.35045,-9.79124
30.88771,-0.1652,-0.35913,-9.74904
30.89774,-0.18211,-0.35329,-9.72854
30.90778,-0.16729,-0.34372,-9.74246
30.91782,-0.14335,-0.34761,-9.77238
30.92785,-0.14829,-0.35225,-9.78016
30.93789,-0.17134,-0.35285,-9.74231
30.94793,-0.18869,-0.35255,-9.75921
30.95796,-0.15083,-0.35075,-9.78361
30.968,-0.16415,-0.33863,-9.79932
30.97804,-0.18181,-0.35135,-9.7459
30.98807,-0.18151,-0.36736,-9.73438
30.99811,-0.15188,-0.3491,-9.80306
31.00815,-0.14724,-0.34058,-9.79483
31.01818,-0.17268,-0.34581,-9.72166
31.02822,-0.18585,-0.35629,-9.73587
31.03826,-0.15218,-0.33728,-9.78555
31.04829,-0.13183,-0.33594,-9.80081
31.05833,-0.15353,-0.34132,-9.7652
31.06837,-0.19647,-0.35614,-9.74231
31.0784,-0.17612,-0.36197,-9.76804
31.08844,-0.15248,-0.34297,-9.77657
31.09848,-0.16729,-0.35225,-9.69966
31.10851,-0.21413,-0.35689,-9.68529
31.11855,-0.15562,-0.35718,-9.8499
31.12859,-0.11253,-0.32456,-10.0115
31.13862,-0.08754,-0.3292,-9.83284
31.14866,-0.24915,-0.40372,-9.48897
31.1587,-0.32711,-0.3729,-9.57381
31.16873,-0.07706,-0.3735,-9.90062
31.17877,-0.01407,-0.34462,-9.95614
31.18881,-0.14889,-0.37978,-9.72689
31.19884,-0.34521,-0.34536,-9.64983
31.20888,-0.23149,-0.31708,-9.71013
31.21892,-0.04384,-0.31155,-9.81503
31.22895,-0.11268,-0.34462,-9.85124
31.23899,-0.23089,-0.3711,-9.71582
31.24903,-0.1854,-0.37215,-9.69263
31.25906,-0.10729,-0.33653,-9.76041
31.2691,-0.14186,-0.33698,-9.89673
31.27914,-0.2068,-0.35988,-9.73602
31.28917,-0.2273,-0.36796,-9.6826
31.29921,-0.12869,-0.36347,-9.81608
31.30925,-0.10505,-0.34581,-9.86815
31.31928,-0.17672,-0.35015,-9.69726
31.32932,-0.23119,-0.36182,-9.70235
31.33936,-0.18091,-0.32501,-9.81862
31.34939,-0.11058,-0.3316,-9.79797
31.35943,-0.15203,-0.33594,-9.74994
31.36947,-0.20276,-0.35524,-9.74171
31.3795,-0.16894,-0.35868,-9.76385
31.38954,-0.10729,-0.35,-9.74964
31.39958,-0.16116,-0.34581,-9.80231
31.40961,-0.20066,-0.35314,-9.764
31.41965,-0.20081,-0.35464,-9.70954
31.42969,-0.14275,-0.3527,-9.76146
31.43972,-0.14694,-0.34716,-9.85364
31.44976,-0.1848,-0.35479,-9.77508
31.4598,-0.17208,-0.3491,-9.70205
31.46984,-0.15832,-0.33863,-9.78331
31.47987,-0.14739,-0.33055,-9.80845
31.48991,-0.14275,-0.35913,-9.74515
31.49995,-0.18899,-0.35554,-9.71358
31.50998,-0.19109,-0.33549,-9.78809
31.52002,-0.14994,-0.32771,-9.78241
31.53006,-0.1655,-0.34297,-9.75667
31.54009,-0.18465,-0.35988,-9.75697
31.55013,-0.17942,-0.36901,-9.76131
31.56017,-0.15712,-0.35464,-9.76355
31.5702,-0.14006,-0.3527,-9.77792
31.58024,-0.18331,-0.34072,-9.75637
31.59028,-0.18765,-0.35195,-9.73916
31.60031,-0.15458,-0.34072,-9.78061
31.61035,-0.15353,-0.3515,-9.79588
31.62039,-0.16131,-0.35225,-9.75921
31.63042,-0.18136,-0.35374,-9.72914
31.64046,-0.1658,-0.3503,-9.77523
31.6505,-0.15487,-0.34821,-9.79348
31.66053,-0.17582,-0.34252,-9.77567
31.67057,-0.1869,-0.34806,-9.75203
31.68061,-0.18405,-0.33309,-9.58504
31.69064,-0.20007,-0.37634,-9.73108
31.70068,-0.10894,-0.34776,-9.94462
31.71072,-0.07183,-0.30511,-10.14214
31.72075,-0.12629,-0.34297,-9.49151
31.73079,-0.36497,-0.40986,-9.51875
31.74083,-0.2264,-0.33354,-9.87144
31.75086,0.02274,-0.3723,-9.96302
31.7609,-0.05896,-0.38113,-9.64639
31.77094,-0.32157,-0.40028,-9.70056
31.78097,-0.27683,-0.31289,-9.85124
31.79101,-0.04893,-0.30152,-9.75009
31.80105,-0.07976,-0.32726,-9.74769
31.81108,-0.30167,-0.36078,-9.79902
31.82112,-0.21967,-0.34716,-9.69442
31.83116,0.00254,-0.3283,-9.79588
31.84119,-0.08021,-0.33474,-9.83463
31.85123,-0.30167,-0.3524,-9.75009
31.86127,-0.23179,-0.3518,-9.63112
31.8713,-0.08036,-0.32277,-9.8258
31.88134,-0.07826,-0.36452,-9.87503
31.89138,-0.23239,-0.38681,-9.71537
31.90141,-0.23014,-0.36975,-9.62738
31.91145,-0.14605,-0.34566,-9.8466
31.92149,-0.09816,-0.32426,-9.85394
31.93152,-0.19184,-0.33818,-9.71193
31.94156,-0.23718,-0.34626,-9.69712
31.9516,-0.16131,-0.3283,-9.82161
31.96163,-0.07721,-0.33743,-9.79677
31.97167,-0.15203,-0.35988,-9.74261
31.98171,-0.21952,-0.35075,-9.75308
31.99174,-0.16116,-0.34222,-9.77193
32.00178,-0.11672,-0.35195,-9.77328
32.01182,-0.16176,-0.35883,-9.77059
32.02185,-0.22042,-0.37619,-9.77837
32.03189,-0.16715,-0.36078,-9.7447
32.04193,-0.11657,-0.34177,-9.75308
32.05196,-0.16999,-0.34521,-9.80725
32.062,-0.19483,-0.3506,-9.76924
32.07204,-0.15667,-0.3705,-9.71387
32.08207,-0.14605,-0.35449,-9.75473
32.09211,-0.14919,-0.33205,-9.80336
32.10215,-0.16505,-0.34626,-9.72555
32.11218,-0.17119,-0.34955,-9.67557
32.12222,-0.17627,-0.34357,-9.74545
32.13226,-0.15906,-0.34851,-9.83254
32.14229,-0.13931,-0.36108,-9.79513
32.15233,-0.15996,-0.36108,-9.73093
32.16237,-0.21742,-0.353,-9.77433
32.1724,-0.17148,-0.34207,-9.81069
32.18244,-0.13482,-0.36137,-9.7233
32.19248,-0.17582,-0.37484,-9.71058
32.20251,-0.19019,-0.35659,-9.76296
32.21255,-0.1462,-0.33878,-9.80066
32.22259,-0.11702,-0.34656,-9.78106
32.23263,-0.18794,-0.33863,-9.76176
32.24266,-0.23358,-0.3295,-9.73258
32.2527,-0.1646,-0.35883,-9.75517
32.26274,-0.09921,-0.36003,-9.81024
32.27277,-0.14021,-0.36452,-9.79468
32.28281,-0.21383,-0.3708,-9.73692
32.29285,-0.18166,-0.35554,-9.73288
32.30288,-0.16445,-0.34087,-9.79543
32.31292,-0.16804,-0.33863,-9.80366
32.32296,-0.18106,-0.35404,-9.73812
32.33299,-0.17777,-0.36227,-9.75338
32.34303,-0.11417,-0.34731,-9.79214
32.35307,-0.1429,-0.34551,-9.77612
32.3631,-0.17044,-0.35674,-9.71642
32.37314,-0.19408,-0.34312,-9.74889
32.38318,-0.15951,-0.33743,-9.78854
32.39321,-0.14111,-0.34417,-9.78869
32.40325,-0.16505,-0.3503,-9.75383
32.41329,-0.1863,-0.36257,-9.75233
32.42332,-0.15787,-0.3497,-9.75936
32.43336,-0.15009,-0.35359,-9.78555
32.4434,-0.17867,-0.34866,-9.79273
32.45343,-0.16729,-0.35823,-9.77433
32.46347,-0.17567,-0.35808,-9.74261
32.4735,-0.15218,-0.35704,-9.75024
32.48354,-0.13752,-0.34417,-9.79573
32.49358,-0.15607,-0.33698,-9.75907
32.50362,-0.17134,-0.34536,-9.74709
32.51365,-0.16595,-0.34282,-9.76565
32.52369,-0.17897,-0.35359,-9.77149
32.53373,-0.15727,-0.34611,-9.76101
32.54376,-0.15667,-0.34716,-9.7649
32.5538,-0.1866,-0.36108,-9.76535
32.56384,-0.15532,-0.3527,-9.77089
32.57387,-0.15368,-0.36676,-9.75503
32.58391,-0.16086,-0.36287,-9.76849
32.59395,-0.17223,-0.35689,-9.75562
32.60398,-0.17074,-0.34387,-9.75936
32.61402,-0.16984,-0.34491,-9.75921
32.62406,-0.16086,-0.34776,-9.76385
32.63409,-0.17538,-0.34521,-9.76026
32.64413,-0.16116,-0.36018,-9.75862
32.65417,-0.14021,-0.34447,-9.78091
32.6642,-0.15383,-0.34925,-9.76191
32.67424,-0.19079,-0.35928,-9.75652
32.68428,-0.18286,-0.35524,-9.7842
32.69431,-0.15892,-0.34985,-9.78735
32.70435,-0.15727,-0.34955,-9.7637
32.71439,-0.17837,-0.34432,-9.76131
32.72442,-0.16819,-0.34596,-9.71627
32.73446,-0.16715,-0.35524,-9.75323
32.7445,-0.13737,-0.34746,-9.75667
32.75453,-0.16999,-0.35494,-9.77149
32.76457,-0.16774,-0.33085,-9.80635
32.77461,-0.15293,-0.33923,-9.83748
32.78464,-0.17478,-0.36377,-9.73931
32.79468,-0.20306,-0.3515,-9.57082
32.80472,-0.24466,-0.38876,-9.69397
32.81475,-0.08978,-0.31005,-10.23357
32.82479,0.02409,-0.35808,-9.94013
32.83483,-0.31005,-0.37679,-9.31015
32.84486,-0.36482,-0.3699,-9.66449
32.8549,-0.11223,-0.32965,-9.97619
32.86494,0.03172,-0.33728,-9.7857
32.87497,-0.10594,-0.40193,-9.70205
32.88501,-0.38711,-0.34611,-9.7854
32.89505,-0.1664,-0.30631,-9.7869
32.90508,0.03397,-0.32382,-9.79558
32.91512,-0.22191,-0.35614,-9.73408
32.92516,-0.31274,-0.37305,-9.71507
32.93519,-0.14365,-0.35988,-9.70819
32.94523,-0.00973,-0.3292,-9.87099
32.95527,-0.10819,-0.36018,-9.8487
32.9653,-0.34866,-0.37963,-9.59237
32.97534,-0.22775,-0.3524,-9.67691
32.98538,0.00165,-0.33205,-9.92711
32.99541,-0.13138,-0.34731,-9.81338
33.00545,-0.24301,-0.36152,-9.60898
33.01549,-0.21533,-0.34731,-9.76011
33.02552,-0.11627,-0.30915,-9.87414
33.03556,-0.07781,-0.32516,-9.81189
33.0456,-0.25349,-0.35704,-9.65791
33.05563,-0.26007,-0.35015,-9.7441
33.06567,-0.0612,-0.35404,-9.81967
33.07571,-0.07617,-0.35449,-9.76954
33.08574,-0.22206,-0.35883,-9.75562
33.09578,-0.23149,-0.3524,-9.75562
33.10582,-0.14245,-0.34836,-9.75772
33.11585,-0.08484,-0.35614,-9.76296
33.12589,-0.19632,-0.36242,-9.8071
33.13593,-0.24137,-0.35943,-9.73153
33.14596,-0.12674,-0.34192,-9.75353
33.156,-0.1227,-0.3295,-9.7842
33.16604,-0.186,-0.34596,-9.8065
33.17607,-0.16535,-0.35883,-9.70954
33.18611,-0.16251,-0.36975,-9.7022
33.19615,-0.13393,-0.34611,-9.81039
33.20618,-0.15009,-0.34581,-9.81638
33.21622,-0.19498,-0.36227,-9.72794
33.22626,-0.18525,-0.35988,-9.74545
33.23629,-0.1637,-0.34132,-9.80426
33.24633,-0.17463,-0.36093,-9.77029
33.25637,-0.14889,-0.35808,-9.75084
33.26641,-0.17448,-0.34925,-9.75428
33.27644,-0.17777,-0.33968,-9.80725
33.28648,-0.14305,-0.32486,-9.77253
33.29651,-0.19049,-0.35285,-9.7447
33.30655,-0.16565,-0.35629,-9.75921
33.31659,-0.14245,-0.35285,-9.78615
33.32662,-0.15338,-0.36467,-9.76176
33.33666,-0.16759,-0.34821,-9.79498
33.3467,-0.19438,-0.34147,-9.73078
33.35673,-0.18405,-0.33908,-9.75263
33.36677,-0.13812,-0.34072,-9.8053
33.37681,-0.164,-0.353,-9.78376
33.38684,-0.16296,-0.36152,-9.74231
33.39688,-0.16894,-0.36152,-9.73767
33.40692,-0.15757,-0.34267,-9.76625
33.41695,-0.15308,-0.3515,-9.77134
33.42699,-0.17313,-0.33773,-9.77508
33.43703,-0.18615,-0.34821,-9.75458
33.44706,-0.15383,-0.35733,-9.77538
33.4571,-0.14425,-0.35509,-9.73033
33.46714,-0.16655,-0.3509,-9.78271
33.47718,-0.16535,-0.34686,-9.78495
33.48721,-0.15517,-0.3494,-9.75951
33.49725,-0.17552,-0.34207,-9.73632
33.50729,-0.16954,-0.35778,-9.77373
33.51732,-0.15502,-0.35374,-9.75862
33.52736,-0.1631,-0.35958,-9.7655
33.5374,-0.16819,-0.34312,-9.76056
33.54743,-0.19034,-0.33085,-9.7655
33.55747,-0.16251,-0.34806,-9.77657
33.56751,-0.1438,-0.35105,-9.75607
33.57754,-0.15278,-0.3515,-9.75488
33.58758,-0.16744,-0.35135,-9.77328
33.59762,-0.14724,-0.34551,-9.78809
33.60765,-0.15607,-0.3503,-9.74575
33.61769,-0.17687,-0.34237,-9.75188
33.62773,-0.17163,-0.36063,-9.76535
33.63776,-0.15532,-0.34477,-9.77089
33.6478,-0.14814,-0.35823,-9.75547
33.65784,-0.18824,-0.36332,-9.75308
33.66787,-0.18361,-0.34177,-9.77493
33.67791,-0.16445,-0.34267,-9.767
33.68795,-0.16221,-0.34462,-9.75966
33.69798,-0.16565,-0.34566,-9.80605
33.70802,-0.15996,-0.36631,-9.75907
33.71806,-0.14934,-0.35868,-9.745
33.72809,-0.16984,-0.34716,-9.77433
33.73813,-0.17657,-0.34701,-9.78391
33.74817,-0.1646,-0.35255,-9.75697
33.7582,-0.14784,-0.35404,-9.74724
33.76824,-0.15847,-0.35554,-9.79288
33.77828,-0.15398,-0.35285,-9.75996
33.78831,-0.16565,-0.35314,-9.74694
33.79835,-0.17268,-0.34267,-9.75727
33.80839,-0.16176,-0.34925,-9.78346
33.81842,-0.14186,-0.33848,-9.7637
33.82846,-0.16595,-0.35838,-9.75308
33.8385,-0.17148,-0.36616,-9.75203
33.84853,-0.16595,-0.36661,-9.76101
33.85857,-0.15772,-0.35015,-9.75173
33.86861,-0.14934,-0.34955,-9.77074
33.87864,-0.17762,-0.353,-9.76445
33.88868,-0.19079,-0.34985,-9.75532
33.89872,-0.15443,-0.3521,-9.77253
33.90875,-0.17567,-0.35135,-9.76909
33.91879,-0.17059,-0.34985,-9.74395
33.92883,-0.16969,-0.34402,-9.75667
33.93886,-0.15338,-0.34402,-9.80306
33.9489,-0.15128,-0.34521,-9.76729
33.95894,-0.17582,-0.34806,-9.75009
33.96897,-0.1845,-0.34895,-9.76759
33.97901,-0.16026,-0.34117,-9.80441
33.98905,-0.1652,-0.34806,-9.7851
33.99908,-0.19169,-0.36063,-9.74904
34.00912,-0.17223,-0.34731,-9.75667
34.01916,-0.15577,-0.33309,-9.78181
34.02919,-0.12944,-0.34731,-9.78795
34.03923,-0.16685,-0.353,-9.75562
34.04927,-0.20306,-0.34686,-9.74365
34.0593,-0.15862,-0.3491,-9.76131
34.06934,-0.13797,-0.32771,-9.77792
34.07938,-0.16909,-0.35823,-9.77134
34.08941,-0.19019,-0.35793,-9.73707
34.09945,-0.17178,-0.34821,-9.76326
34.10949,-0.14126,-0.33773,-9.7857
34.11952,-0.15069,-0.36063,-9.75847
34.12956,-0.18435,-0.36691,-9.74545
34.1396,-0.16774,-0.34477,-9.76939
34.14963,-0.14485,-0.34776,-9.79737
34.15967,-0.16715,-0.36272,-9.76116
34.16971,-0.19393,-0.35943,-9.75742
34.17974,-0.16385,-0.3491,-9.74036
34.18978,-0.15278,-0.34327,-9.7848
34.19982,-0.15293,-0.34462,-9.79962
34.20985,-0.16954,-0.33609,-9.75907
34.21989,-0.18465,-0.3521,-9.71881
34.22993,-0.14739,-0.36512,-9.75637
34.23996,-0.14515,-0.34282,-9.79647
34.25,-0.1664,-0.33833,-9.75458
34.26004,-0.18241,-0.35689,-9.74216
34.27007,-0.18585,-0.36003,-9.7667
34.28011,-0.14859,-0.34791,-9.80455
34.29015,-0.13632,-0.36078,-9.75098
