t,ax,ay,az
0.0,0.56817,-2.46318,-10.26155
0.01004,0.07063,-2.45884,-10.8405
0.02007,-0.0844,-2.25264,-11.21938
0.03011,0.00419,-2.12485,-11.0443
0.04015,0.27219,-2.0243,-10.3639
0.05018,0.59167,-2.00649,-9.70804
0.06022,0.89244,-2.08849,-9.20526
0.07026,0.95439,-2.22361,-8.85286
0.08029,0.79532,-2.38687,-8.7737
0.09033,0.66364,-2.48368,-8.93845
0.10037,0.54992,-2.60863,-9.31479
0.1104,0.30511,-2.66759,-9.76161
0.12044,0.11343,-2.52454,-10.221
0.13048,0.00314,-2.33659,-10.36255
0.14051,0.15757,-2.30472,-10.10428
0.15055,0.13542,-2.15538,-9.36821
0.16059,0.20276,-2.14161,-8.83834
0.17062,0.34536,-2.40363,-8.61943
0.18066,0.31963,-2.80481,-8.72746
0.1907,0.26785,-2.97973,-8.8786
0.20073,0.32202,-2.91898,-8.74153
0.21077,0.42901,-2.83907,-8.3393
0.22081,0.46073,-2.75932,-7.96072
0.23084,0.38098,-2.65891,-7.97434
0.24088,0.25798,-2.53935,-8.55718
0.25092,0.16206,-2.27374,-9.40742
0.26095,-0.00628,-2.09627,-10.19975
0.27099,-0.30945,-2.18456,-10.9014
0.28103,-0.2466,-2.29439,-11.08171
0.29106,0.18869,-2.74001,-10.51399
0.3011,0.61007,-3.07206,-9.75966
0.31114,0.84081,-3.1165,-9.23459
0.32117,0.73337,-2.95953,-9.14645
0.33121,0.27533,-2.77787,-9.45919
0.34125,-0.19513,-2.69378,-9.78271
0.35128,-0.42318,-2.76441,-9.92576
0.36132,-0.44098,-2.85449,-10.07375
0.37135,-0.20321,-2.93469,-9.99669
0.38139,0.1242,-3.03076,-9.58534
0.39143,0.44263,-3.04004,-9.06864
0.40147,0.61217,-3.03734,-8.53787
0.4115,0.6623,-2.97629,-8.28469
0.42154,0.56877,-2.8491,-8.37686
0.43158,0.3937,-2.89983,-8.76278
0.44161,0.21219,-2.86795,-9.22351
0.45165,0.22461,-2.68599,-9.4544
0.46169,0.28626,-2.56718,-9.41834
0.47172,0.33429,-2.50284,-9.34068
0.48176,0.40941,-2.35754,-9.21244
0.49179,0.41465,-2.51451,-9.46548
0.50183,0.27279,-2.78161,-9.71238
0.51187,0.49904,-2.99185,-8.14612
0.52191,0.7826,-3.41308,-7.00469
0.53194,0.27788,-3.58981,-8.59144
0.54198,-0.18196,-3.34395,-9.58668
0.55202,-0.66095,-3.14912,-10.27756
0.56205,-1.05061,-3.06293,-10.89317
0.57209,-1.1151,-3.04408,-11.19604
0.58213,-0.91234,-2.9299,-10.88359
0.59216,-0.5375,-2.63856,-10.05714
0.6022,-0.14066,-2.36532,-9.30985
0.61224,0.13228,-2.2507,-8.72806
0.62227,0.26321,-2.3128,-8.57723
0.63231,0.23897,-2.38777,-8.80692
0.64234,-0.09876,-2.34093,-9.70729
0.65238,-0.09876,-2.34093,-9.70729
0.66242,-0.25289,-2.27225,-10.11371
0.67245,-0.40387,-2.25564,-10.34071
0.68249,-0.48288,-2.26267,-10.38964
0.69253,-0.5782,-2.25698,-10.3859
0.70256,-0.6204,-2.20356,-10.30015
0.7126,-0.64778,-2.22676,-10.10203
0.72264,-0.63117,-2.32657,-9.90347
0.73267,-0.62055,-2.54997,-9.73288
0.74271,-0.60005,-2.46303,-9.32332
0.75275,-0.49934,-2.29604,-9.09707
0.76278,-0.40701,-2.35964,-8.98005
0.77282,-0.32756,-2.38507,-8.85047
0.78286,-0.19692,-2.33076,-8.81635
0.79289,-0.07213,-2.25474,-9.03467
0.80293,0.01556,-2.18097,-9.36687
0.81297,0.02738,-2.06575,-9.71926
0.823,-0.01556,-1.91626,-10.04936
0.83304,-0.02589,-1.88094,-10.05999
0.84308,0.03531,-1.83336,-9.87593
0.85311,0.20291,-1.88873,-9.58189
0.86315,0.30347,-2.01622,-9.26152
0.87319,0.39699,-2.07443,-9.09946
0.88322,0.43245,-2.07368,-9.15303
0.89326,0.40477,-2.05737,-9.32946
0.9033,0.34462,-2.03043,-9.43345
0.91333,0.31199,-2.02475,-9.43106
0.92337,0.35255,-1.97986,-9.34607
0.93341,0.48348,-1.88603,-9.28262
0.94344,0.65915,-1.82932,-9.19882
0.95348,0.78111,-1.81346,-9.15333
0.96352,0.81403,-1.82663,-9.19194
0.97355,0.83154,-1.88977,-9.47161
0.98359,0.75881,-1.97312,-9.72525
0.99363,0.62339,-2.02086,-9.83897
1.00366,0.51445,-2.10914,-9.88012
1.0137,0.46118,-2.15792,-9.82281
1.02374,0.41749,-2.1054,-9.86501
1.03377,0.38472,-1.90638,-10.00881
1.04381,0.48662,-1.61175,-9.87114
1.05385,0.66319,-1.38534,-9.5367
1.06388,0.82151,-1.24274,-9.17997
1.07392,1.05165,-1.2815,-8.84523
1.08396,1.30589,-1.52466,-8.90419
1.09399,1.36724,-1.75405,-9.37435
1.10403,1.08772,-1.84189,-9.97335
1.11407,0.67097,-1.85521,-10.36659
1.1241,0.35329,-1.90459,-10.26304
1.13414,0.16251,-1.9628,-9.96452
1.14418,-0.00748,-1.91895,-9.73827
1.15421,-0.11313,-1.83381,-9.69547
1.16425,-0.1025,-1.75375,-9.67871
1.17429,0.01407,-1.70392,-9.67976
1.18432,0.12734,-1.73385,-9.73871
1.19436,0.13033,-1.78069,-9.79662
1.2044,0.13228,-1.81645,-9.7652
1.21443,0.16026,-1.87795,-9.70684
1.22447,0.16505,-1.88289,-9.805
1.23451,0.10939,-1.81271,-9.87114
1.24454,0.03337,-1.6939,-9.78435
1.25458,0.04459,-1.57748,-9.61197
1.26462,0.16804,-1.53603,-9.38497
1.27465,0.2885,-1.60217,-9.31734
1.28469,0.33324,-1.73116,-9.39784
1.29473,0.26606,-1.84174,-9.62783
1.30476,0.09023,-1.83007,-9.68021
1.3148,-0.00284,-1.75675,-9.49091
1.32484,0.05267,-1.70153,-9.29953
1.33487,0.07826,-1.69016,-9.25045
1.34491,0.09278,-1.73355,-9.29324
1.35495,0.07227,-1.77964,-9.48463
1.36498,-0.02903,-1.81436,-9.77897
1.37502,-0.14485,-1.80268,-9.93489
1.38506,-0.18166,-1.73445,-9.88326
1.39509,-0.01541,-1.67863,-9.71208
1.40513,0.11058,-1.64826,-9.69532
1.41517,0.14664,-1.65305,-9.82984
1.4252,0.10849,-1.61354,-9.94776
1.43524,0.03531,-1.5685,-9.96781
1.44528,-0.04489,-1.57464,-9.91978
1.45531,-0.05776,-1.63344,-9.81997
1.46535,-0.04564,-1.67953,-9.66734
1.47539,0.00928,-1.7126,-9.45081
1.48542,0.10864,-1.72457,-9.27678
1.49546,0.19902,-1.71889,-9.27693
1.5055,0.25528,-1.70617,-9.3727
1.51553,0.26576,-1.67459,-9.50453
1.52557,0.22416,-1.6294,-9.63801
1.53561,0.16595,-1.64437,-9.79438
1.54564,0.10819,-1.64781,-9.84436
1.55568,0.09442,-1.68028,-9.70056
1.56572,0.16475,-1.71978,-9.581
1.57575,0.21099,-1.72936,-9.56738
1.58579,0.21503,-1.71754,-9.52114
1.59583,0.23089,-1.67819,-9.51426
1.60586,0.20141,-1.69614,-9.64489
1.6159,0.16071,-1.7343,-9.81727
1.62594,0.09248,-1.75016,-9.88551
1.63597,0.05477,-1.74268,-9.84765
1.64601,0.07901,-1.69704,-9.73168
1.65605,0.14709,-1.67579,-9.61616
1.66608,0.23059,-1.64811,-9.53595
1.67612,0.26441,-1.6309,-9.48104
1.68616,0.27473,-1.62207,-9.46577
1.69619,0.2668,-1.60382,-9.46054
1.70623,0.24181,-1.62836,-9.46697
1.71627,0.21952,-1.69255,-9.56932
1.7263,0.17612,-1.73625,-9.6817
1.73634,0.15083,-1.72652,-9.58863
1.74638,0.2059,-1.69165,-9.42941
1.75641,0.31843,-1.61025,-9.39021
1.76645,0.39415,-1.54157,-9.40128
1.77649,0.41749,-1.50431,-9.50049
1.78652,0.38906,-1.53498,-9.59327
1.79656,0.34821,-1.59095,-9.59162
1.8066,0.35285,-1.66202,-9.56813
1.81663,0.3289,-1.69255,-9.54852
1.82667,0.32696,-1.70751,-9.59087
1.83671,0.32576,-1.67923,-9.66958
1.84674,0.27668,-1.65005,-9.7643
1.85678,0.27788,-1.62342,-9.73617
1.86682,0.28835,-1.62222,-9.57546
1.87685,0.31843,-1.61399,-9.42058
1.88689,0.33609,-1.63449,-9.34038
1.89693,0.27922,-1.6318,-9.40906
1.90696,0.21997,-1.62432,-9.57411
1.917,0.16999,-1.63868,-9.70355
1.92704,0.18705,-1.64482,-9.69726
1.93707,0.23747,-1.64287,-9.64115
1.94711,0.2882,-1.63808,-9.6006
1.95715,0.30122,-1.59364,-9.6639
1.96718,0.25812,-1.52556,-9.72794
1.97722,0.21383,-1.50491,-9.73512
1.98726,0.18884,-1.5082,-9.67811
1.99729,0.19198,-1.56596,-9.63965
2.00733,0.19722,-1.64123,-9.67392
2.01737,0.17283,-1.6725,-9.73228
2.0274,0.17478,-1.64542,-9.75323
2.03744,0.19258,-1.5706,-9.61452
2.04748,0.24735,-1.53154,-9.49466
2.05751,0.27189,-1.51269,-9.47909
2.06755,0.28326,-1.53812,-9.48613
2.07759,0.25139,-1.57224,-9.45814
2.08762,0.20051,-1.6291,-9.49151
2.09766,0.16849,-1.66696,-9.53655
2.1077,0.205,-1.63569,-9.56498
2.11773,0.2683,-1.59289,-9.57396
2.12777,0.30182,-1.53438,-9.69412
2.13781,0.26965,-1.5052,-9.79453
2.14784,0.2493,-1.48171,-9.75727
2.15788,0.26516,-1.47707,-9.71358
2.16792,0.26112,-1.51673,-9.68873
2.17795,0.2469,-1.58526,-9.75143
2.18799,0.23852,-1.61668,-9.7875
2.19803,0.23179,-1.62043,-9.7453
2.20806,0.23538,-1.58795,-9.68514
2.2181,0.26546,-1.54576,-9.69936
2.22814,0.25349,-1.52361,-9.70579
2.23817,0.22146,-1.53259,-9.71986
2.24821,0.19543,-1.56566,-9.69083
2.25825,0.19707,-1.60471,-9.6226
2.26828,0.21308,-1.62806,-9.56199
2.27832,0.21982,-1.64497,-9.56738
2.28836,0.18241,-1.6318,-9.54104
2.29839,0.20455,-1.61444,-9.55885
2.30843,0.2695,-1.53573,-9.66644
2.31847,0.30212,-1.47737,-9.81593
2.3285,0.29269,-1.45792,-9.93519
2.33854,0.27773,-1.44325,-9.95599
2.34858,0.30077,-1.47887,-9.86755
2.35861,0.32352,-1.52511,-9.73333
2.36865,0.31259,-1.56237,-9.5605
2.37869,0.33863,-1.58391,-9.43241
2.38872,0.35659,-1.57419,-9.3317
2.39876,0.394,-1.54785,-9.35355
2.4088,0.40627,-1.48785,-9.4571
2.41883,0.41195,-1.43233,-9.57292
2.42887,0.41225,-1.41183,-9.64055
2.43891,0.42213,-1.40779,-9.66479
2.44894,0.37439,-1.41767,-9.75832
2.45898,0.36452,-1.40944,-9.79767
2.46902,0.39025,-1.39118,-9.70834
2.47905,0.4347,-1.37816,-9.62933
2.48909,0.4745,-1.37083,-9.54374
2.49913,0.47914,-1.37412,-9.44273
2.50916,0.36901,-1.44834,-9.40802
2.5192,0.2686,-1.50895,-9.48298
2.52924,0.2053,-1.57838,-9.63786
2.53927,0.22266,-1.59005,-9.7233
2.54931,0.30451,-1.47617,-9.58908
2.55935,0.38457,-1.34704,-9.4743
2.56938,0.45206,-1.23017,-9.40128
2.57942,0.47166,-1.19785,-9.34292
2.58946,0.53361,-1.21191,-9.32871
2.59949,0.53406,-1.19186,-9.39709
2.60953,0.48872,-1.18543,-9.53476
2.61957,0.4127,-1.16328,-9.55825
2.6296,0.3114,-1.1561,-9.46488
2.63964,0.23688,-1.21446,-9.32556
2.64968,0.17178,-1.3026,-9.19478
2.65971,0.01541,-1.3617,-9.13134
2.66975,-0.18151,-1.42709,-9.07986
2.67979,-0.24735,-1.35901,-9.00399
2.68982,-0.14934,-1.12408,-9.02988
2.69986,0.04983,-0.83947,-9.09467
2.7099,0.1848,-0.70375,-9.11158
2.71993,0.09487,-0.52149,-9.03587
2.72997,0.12704,-0.75567,-9.15423
2.74001,-0.03008,-1.35991,-8.91271
2.75004,-0.08245,-1.59813,-8.76023
2.76008,-0.18076,-1.35991,-9.15692
2.77012,-0.18615,-0.63312,-9.77493
2.78015,0.14081,0.01661,-10.21726
2.79019,0.41779,0.19722,-10.33906
2.80023,0.64434,-0.05836,-10.10742
2.81026,0.71048,-0.48423,-9.47849
2.8203,0.63506,-0.9083,-8.82024
2.83034,0.4968,-1.15969,-8.63005
2.84037,0.36152,-1.19905,-8.65504
2.85041,0.21548,-1.03863,-8.86917
2.86045,0.19737,-0.79368,-9.35115
2.87048,0.29748,-0.56024,-9.74231
2.88052,0.46238,-0.48213,-10.04592
2.89056,0.62309,-0.44562,-10.08797
2.90059,0.6623,-0.3289,-9.79752
2.91063,0.64988,-0.11313,-9.73048
2.92067,0.63177,0.19617,-9.75892
2.9307,0.4139,0.37933,-9.90032
2.94074,0.04923,0.49455,-10.36136
2.95078,-0.29434,0.50263,-10.81356
2.96081,-0.53944,0.44308,-10.90095
2.97085,-0.62025,0.40701,-10.69071
2.98089,-0.65496,0.34447,-10.37497
2.99092,-0.80984,0.07198,-10.31332
3.00096,-1.07814,-0.14455,-10.45473
3.011,-1.51538,-0.15039,-10.86683
3.02103,-2.04091,-0.11642,-11.67113
3.03107,-2.56928,-0.03576,-12.30186
3.04111,-3.13072,0.04265,-12.41588
3.05114,-3.46815,0.25214,-12.32011
3.06118,-3.45408,0.43634,-12.15387
3.07122,-3.241,0.51909,-11.81808
3.08125,-3.07026,0.49036,-11.7464
3.09129,-3.17845,0.48453,-11.9725
3.10133,-3.41129,0.55905,-12.28585
3.11136,-3.65131,0.66274,-12.65605
3.1214,-3.78987,0.79532,-13.41247
3.13144,-3.9648,0.84066,-14.6386
3.14147,-4.1276,0.65317,-15.1951
3.15151,-4.04979,0.13692,-15.0935
3.16155,-3.68123,-0.16625,-14.81741
3.17158,-2.32223,0.34387,-14.62827
3.18162,-2.02101,0.94347,-14.63141
3.19166,-2.07293,1.22074,-15.20692
3.20169,-2.23304,0.83513,-15.74232
3.21173,-2.35934,0.06225,-16.58942
3.22177,-2.35455,-0.68968,-16.80101
3.2318,-2.20985,-1.0313,-16.69791
3.24184,-2.09253,-1.00272,-16.78964
3.25188,-1.87227,-0.84261,-17.18738
3.26191,-1.7358,-0.78485,-17.77336
3.27195,-1.41782,-0.82525,-17.82872
3.28199,-0.84455,-0.74744,-17.49428
3.29202,-0.15981,-0.46043,-17.12123
3.30206,0.58852,-0.08215,-16.69342
3.3121,1.26713,0.32097,-16.44427
3.32213,1.75794,0.65826,-16.54423
3.33217,2.07517,0.85353,-16.60349
3.34221,2.34318,0.85219,-16.52224
3.35224,2.69168,0.72469,-16.39864
3.36228,3.06159,0.60199,-16.29643
3.37232,3.35383,0.47585,-16.15248
3.38235,3.55225,0.43126,-15.86937
3.39239,3.73884,0.42707,-15.37841
3.40243,3.90928,0.27848,-14.51275
3.41247,4.15514,-0.09427,-13.56719
3.4225,4.34488,-0.53705,-12.85028
3.43254,4.24178,-0.93075,-12.2827
3.44258,3.91646,-1.32549,-11.73398
3.45261,3.59549,-1.67519,-11.10296
3.46265,3.40426,-1.78578,-10.52895
3.47269,3.47399,-1.82079,-10.35073
3.48272,3.43987,-1.87705,-10.22578
3.49276,3.09002,-2.03103,-9.8704
3.5028,2.50972,-2.32133,-9.34232
3.51283,1.8356,-2.74316,-8.82518
3.52287,1.45358,-3.16573,-8.32509
3.53291,1.39313,-3.40336,-7.90221
3.54294,1.51418,-3.4469,-6.84487
3.55298,1.58122,-3.39767,-6.89081
3.56302,1.31502,-2.9516,-7.59935
3.57305,1.22149,-2.51496,-7.56433
3.58309,1.42156,-2.22765,-7.74165
3.59313,1.79909,-1.83022,-8.04886
3.60316,2.15284,-1.49757,-8.26882
3.6132,1.89785,-1.1989,-8.093
3.62324,1.49054,-1.06886,-7.24994
3.63327,1.22254,-1.28868,-6.32488
3.64331,0.96561,-1.54695,-5.68593
3.65335,0.61052,-1.74388,-5.12913
3.66338,0.38113,-1.76752,-4.74157
3.67342,0.44906,-1.70362,-4.34069
3.68346,0.85323,-1.70063,-3.64472
3.69349,1.20189,-1.85401,-2.84027
3.70353,1.37876,-2.0635,-2.09897
3.71357,1.50057,-2.355,-1.83845
3.7236,1.57509,-2.57706,-2.04315
3.73364,1.63674,-2.66385,-2.72505
3.74368,1.7346,-2.79493,-3.75336
3.75371,1.6101,-2.94173,-4.58909
3.76375,1.22284,-2.94427,-5.24435
3.77379,0.91997,-2.7671,-6.00107
3.78382,0.89887,-2.30726,-6.51761
3.79386,0.90665,-1.70527,-6.83949
3.8039,0.89169,-1.33222,-6.76272
3.81393,0.94451,-1.16254,-6.45043
3.82397,0.91863,-1.35362,-6.23315
3.83401,0.72125,-1.94334,-5.968
3.84404,0.46941,-2.65577,-5.70808
3.85408,0.28341,-3.22664,-5.72274
3.86412,0.24137,-3.4876,-5.94869
3.87415,0.18136,-3.49928,-6.29316
3.88419,-0.0021,-3.33033,-6.57717
3.89423,-0.05626,-2.9103,-6.63643
3.90426,0.06928,-2.41111,-6.58824
3.9143,0.21982,-1.97896,-6.57044
3.92434,0.4133,-1.66831,-6.65992
3.93437,0.51984,-1.52511,-6.77604
3.94441,0.41704,-1.67265,-7.02713
3.95445,0.17942,-2.05018,-7.32536
3.96448,0.01033,-2.50179,-7.19188
3.97452,-0.12495,-2.88307,-6.6469
3.98456,-0.3078,-3.16753,-5.90859
3.99459,-0.59256,-3.29472,-5.29059
4.00463,-0.77961,-3.2428,-4.81324
4.01467,-0.77901,-3.05021,-4.75728
4.0247,-0.48019,-2.8476,-5.29044
4.03474,-0.06539,-2.73822,-5.98087
4.04478,0.44023,-2.83548,-6.12152
4.05481,1.1546,-2.98766,-5.5529
4.06485,1.66816,-3.09361,-4.64251
4.07489,1.6496,-3.16663,-4.09693
4.08492,0.84755,-3.15212,-4.38034
4.09496,-0.35344,-3.03241,-5.39488
4.105,-1.2791,-2.98572,-6.65034
4.11503,-1.43293,-2.79269,-7.72504
4.12507,-0.58823,-2.47875,-7.98586
4.13511,0.722,-2.05707,-7.4533
4.14514,1.76961,-1.5902,-6.78352
4.15518,2.23304,-1.21655,-6.02082
4.16522,2.12575,-1.0542,-5.21577
4.17525,1.61728,-1.053,-4.75399
4.18529,0.92222,-1.25262,-4.67124
4.19533,0.43395,-1.75585,-5.06718
4.20536,-0.12106,-2.42832,-5.79083
4.2154,-0.74684,-3.02029,-6.57253
4.22544,-0.93838,-3.30579,-6.79295
4.23547,-0.89738,-3.01684,-6.57149
4.24551,-0.85967,-2.31998,-6.35616
4.25555,-0.73337,-1.70886,-6.12586
4.26558,-0.89169,-1.3219,-6.13439
4.27562,-1.41452,-1.14129,-6.68117
4.28566,-1.90085,-1.0934,-7.21897
4.29569,-2.30562,-1.02337,-7.43609
4.30573,-2.58948,-0.98701,-7.33254
4.31577,-2.51331,-1.04462,-6.89725
4.3258,-2.4162,-1.19994,-6.26742
4.33584,-2.42473,-1.43203,-5.82779
4.34588,-2.38058,-1.715,-5.7398
4.35591,-2.169,-1.91835,-6.09654
4.36595,-2.00484,-1.85895,-6.61653
4.37599,-1.89501,-1.46375,-7.29932
4.38602,-2.00335,-0.80655,-8.00711
4.39606,-2.38133,-0.28596,-8.89356
4.4061,-2.62165,-0.02185,-9.77283
4.41613,-2.50179,-0.38966,-10.64238
4.42617,-2.23274,-1.16014,-11.22073
4.43621,-2.28377,-1.75061,-11.67607
4.44624,-2.64948,-1.94693,-12.31308
4.45628,-2.9504,-1.73894,-12.87302
4.46632,-3.18279,-1.33956,-12.89786
4.47635,-3.19536,-1.02292,-12.58871
4.48639,-2.76874,-1.05719,-11.73054
4.49643,-2.05632,-0.96322,-10.6313
4.50647,-1.32474,-0.62997,-9.83957
4.5165,-0.47241,-0.2671,-9.43271
4.52654,-0.022,0.10579,-9.66001
4.53658,-0.1046,0.33444,-10.47224
4.54661,-0.41345,0.53451,-11.7063
4.55665,-0.76989,0.89349,-13.45766
4.56669,-0.61666,1.44325,-14.07102
4.57672,0.17732,2.22062,-13.20716
4.58676,1.13799,2.43251,-11.91265
4.5968,1.68986,2.15493,-10.73814
4.60683,1.68447,1.68223,-10.35148
4.61687,1.39612,1.23331,-11.50025
4.62691,0.68669,1.16074,-13.02311
4.63694,-0.06494,1.53379,-13.63243
4.64698,-0.40178,1.88813,-13.59697
4.65702,-0.36646,1.85087,-13.24412
4.66705,-0.01631,1.3427,-12.75421
4.67709,0.17552,0.98581,-12.39523
4.68713,0.09427,0.91384,-12.72234
4.69716,-0.03053,1.01963,-13.17993
4.7072,0.02903,1.40525,-13.70112
4.71724,0.44787,1.97716,-14.37479
4.72727,1.23451,2.63228,-14.96316
4.73731,1.72981,3.1997,-15.17834
4.74735,1.90115,3.40994,-15.51892
4.75738,1.75315,3.39483,-15.93072
4.76742,1.0747,3.08852,-15.86398
4.77746,0.4121,2.48249,-15.31691
4.78749,0.30347,1.81032,-14.18175
4.79753,0.76091,1.30813,-12.50821
4.80757,1.67025,1.47827,-10.78483
4.8176,2.62599,2.37385,-9.90332
4.82764,3.13596,3.67285,-10.55379
4.83768,3.2193,4.70565,-12.07695
4.84771,3.03091,5.14813,-13.82068
4.85775,2.59636,5.1218,-15.50754
4.86779,2.15598,4.64101,-16.45699
4.87782,1.72323,4.03812,-16.20007
4.88786,1.3614,3.41293,-15.08856
4.8979,1.20758,2.72011,-13.60535
4.90793,1.17914,2.14176,-12.27717
4.91797,1.2381,1.81271,-11.57926
4.92801,1.5878,1.66861,-11.57163
4.93804,2.01996,1.77799,-11.85908
4.94808,2.37939,1.97357,-12.28181
4.95812,2.59816,2.09986,-12.48367
4.96815,2.67732,1.92688,-12.44805
4.97819,2.58828,1.45358,-12.25053
4.98823,2.42069,0.86984,-11.94961
4.99826,2.41036,0.28715,-11.293
5.0083,2.61656,-0.06659,-10.44665
5.01834,3.01086,-0.15637,-9.93639
5.02837,3.35443,0.09128,-9.8885
5.03841,3.57035,0.48752,-10.41448
5.04845,3.40845,0.7449,-11.20651
5.05848,3.01505,0.73697,-11.53332
5.06852,2.63018,0.44472,-11.51401
5.07856,2.45795,0.06868,-11.0265
5.08859,2.30577,-0.12181,-10.30943
5.09863,2.12321,-0.14844,-9.65163
5.10867,2.0665,-0.15473,-9.3112
5.1187,1.97552,-0.15263,-9.22426
5.12874,1.69824,-0.09412,-9.37614
5.13878,1.48755,-0.14201,-9.78031
5.14881,1.31935,0.06,-10.10907
5.15885,1.21386,0.25588,-10.36136
5.16889,1.15924,0.51101,-10.16413
5.17892,1.09744,0.61561,-9.88087
5.18896,0.9065,0.67516,-9.62559
5.199,0.60364,0.54094,-9.29564
5.20903,0.38217,0.38158,-8.99517
5.21907,0.38382,0.23388,-8.68886
5.22911,0.52343,0.42557,-8.79435
5.23914,0.57446,0.83004,-9.24117
5.24918,0.40582,1.28524,-9.76296
5.25922,0.19543,1.26593,-10.16039
5.26926,0.08499,1.0958,-10.12134
5.27929,0.02634,0.98641,-9.77253
5.28933,0.19573,1.09355,-9.52129
5.29936,0.40253,1.36739,-9.43315
5.3094,0.56907,1.66562,-9.5599
5.31944,0.67217,1.76108,-9.85932
5.32947,0.59167,1.79775,-10.12328
5.33951,0.34521,1.58691,-10.14094
5.34955,0.16924,1.2794,-9.94222
5.35958,0.10834,1.00646,-9.77283
5.36962,0.13497,1.0123,-9.60344
5.37966,0.15443,1.0922,-9.641
5.3897,0.14889,1.14952,-9.68933
5.39973,0.16445,1.01798,-9.72525
5.40977,0.14904,0.87807,-9.71836
5.4198,0.06943,0.79547,-9.64325
5.42984,0.10115,0.71856,-9.61466
5.43988,0.13348,0.61486,-9.5807
5.44992,0.16744,0.55471,-9.44183
5.45995,0.15951,0.52074,-9.36432
5.46999,0.14829,0.5146,-9.38677
5.48003,0.1444,0.47181,-9.30043
5.49006,0.13856,0.38936,-9.2491
5.5001,0.12585,0.33279,-9.28845
5.51014,0.10849,0.34342,-9.56603
5.52017,0.03172,0.31334,-10.05535
5.53021,0.0214,0.21174,-10.2816
5.54025,0.07676,0.12001,-10.18808
5.55028,0.20845,0.11073,-9.79408
5.56032,0.2876,0.17119,-9.36672
5.57036,0.32172,0.2261,-9.26541
5.58039,0.31903,0.27818,-9.32931
5.59043,0.2885,0.26995,-9.50812
5.60047,0.30391,0.09113,-9.99579
5.6105,0.30391,0.09113,-9.99579
5.62054,0.34656,0.08245,-9.99864
5.63058,0.44801,0.15772,-9.73931
5.64061,0.52882,0.20396,-9.51082
5.65065,0.60274,0.17852,-9.39934
5.66069,0.57521,0.15098,-9.38856
5.67072,0.48393,0.16655,-9.32946
5.68076,0.42003,0.09697,-9.31434
5.6908,0.38307,-0.03142,-9.49974
5.70083,0.32651,-0.05776,-9.74814
5.71087,0.34072,-0.05192,-9.9699
5.72091,0.31813,0.01631,-10.04876
5.73094,0.35718,0.05926,-10.04158
5.74098,0.39385,0.0609,-9.87623
5.75102,0.37155,0.0395,-9.65222
5.76105,0.28656,0.019,-9.53012
5.77109,0.22341,-0.06689,-9.63277
5.78113,0.13063,-0.1634,-9.6603
5.79116,0.07138,-0.22251,-9.73198
5.8012,0.10983,-0.26112,-9.76535
5.81124,0.20455,-0.25423,-9.59072
5.82127,0.30541,-0.15817,-9.47251
5.83131,0.3732,-0.04923,-9.53042
5.84135,0.34536,0.00239,-9.62798
5.85139,0.30825,-0.0205,-9.86426
5.86142,0.25528,-0.06569,-10.00133
5.87146,0.23598,-0.13587,-10.00447
5.8815,0.29374,-0.20186,-9.98816
5.89153,0.33983,-0.17807,-9.86112
5.90157,0.35045,-0.16206,-9.63621
5.91161,0.32786,-0.17253,-9.45455
5.92164,0.309,-0.25154,-9.38063
5.93168,0.26112,-0.32771,-9.37375
5.94172,0.27743,-0.34357,-9.41445
5.95175,0.2876,-0.2665,-9.4164
5.96179,0.35015,-0.2062,-9.44423
5.97183,0.37125,-0.13707,-9.65581
5.98186,0.35898,-0.05971,-9.94267
5.9919,0.30317,-0.09098,-10.17057
6.00194,0.29748,-0.15413,-10.18224
6.01197,0.35015,-0.22371,-9.97484
6.02201,0.34043,-0.21308,-9.65821
6.03205,0.28311,-0.23478,-9.37854
6.04208,0.24705,-0.32606,-9.28097
6.05212,0.21144,-0.40911,-9.40383
6.06216,0.18959,-0.43919,-9.67287
6.07219,0.2053,-0.3919,-9.91589
6.08223,0.24556,-0.30032,-10.00357
6.09227,0.29972,-0.22146,-9.94506
6.1023,0.27728,-0.20051,-9.81189
6.11234,0.2671,-0.26845,-9.75682
6.12238,0.27264,-0.33534,-9.81413
6.13241,0.3099,-0.34058,-9.86516
6.14245,0.35045,-0.26276,-9.92741
6.15249,0.35225,-0.25872,-9.91065
6.16252,0.31768,-0.29778,-9.77029
6.17256,0.25064,-0.35913,-9.6428
6.1826,0.18405,-0.38173,-9.57636
6.19263,0.16849,-0.39385,-9.6214
6.20267,0.23777,-0.35704,-9.74201
6.21271,0.27683,-0.27309,-9.92352
6.22274,0.33758,-0.22146,-10.07764
6.23278,0.39534,-0.26097,-9.99639
6.24282,0.38322,-0.30885,-9.74754
6.25285,0.31723,-0.33279,-9.51815
6.26289,0.23718,-0.40537,-9.36911
6.27293,0.17867,-0.47869,-9.41999
6.28296,0.14994,-0.50652,-9.57022
6.293,0.1254,-0.45355,-9.72854
6.30304,0.12839,-0.39923,-9.88431
6.31307,0.19348,-0.35718,-9.94058
6.32311,0.27533,-0.31813,-9.77238
6.33315,0.28416,-0.28162,-9.58519
6.34319,0.19603,-0.29658,-9.54613
6.35322,0.07422,-0.3735,-9.62813
6.36326,-0.01137,-0.46702,-9.64803
6.3733,-0.08933,-0.49874,-9.65985
6.38333,-0.10041,-0.50129,-9.69352
6.39337,-0.0826,-0.45714,-9.76685
6.40341,-0.01077,-0.39011,-9.89658
6.41344,0.12704,-0.31858,-9.9494
6.42348,0.2472,-0.24615,-9.92831
6.43352,0.30002,-0.21174,-9.76879
6.44355,0.3084,-0.23149,-9.6627
6.45359,0.2469,-0.34252,-9.68724
6.46363,0.2469,-0.34252,-9.68724
6.47366,0.31603,-0.41105,-9.73602
6.4837,0.35509,-0.39474,-9.65956
6.49374,0.36048,-0.32187,-9.69308
6.50377,0.41061,-0.28521,-9.73288
6.51381,0.40821,-0.31978,-9.72046
6.52385,0.3702,-0.34596,-9.73901
6.53388,0.32771,-0.35135,-9.77433
6.54392,0.3093,-0.37005,-9.81653
6.55396,0.31978,-0.36916,-9.96975
6.56399,0.37275,-0.36392,-10.0561
6.57403,0.40746,-0.36197,-9.96137
6.58407,0.37783,-0.35539,-9.82715
6.5941,0.331,-0.38068,-9.65282
6.60414,0.28641,-0.44772,-9.55451
6.61418,0.26172,-0.48064,-9.54134
6.62421,0.27773,-0.46148,-9.58698
6.63425,0.25319,-0.40507,-9.67856
6.64429,0.22431,-0.41165,-9.86202
6.65432,0.21997,-0.40881,-9.95704
6.66436,0.2285,-0.41061,-9.92247
6.6744,0.24705,-0.41135,-9.83119
6.68443,0.25633,-0.35629,-9.86261
6.69447,0.29149,-0.32741,-9.95943
6.70451,0.31723,-0.32995,-10.03664
6.71454,0.28895,-0.32441,-9.94372
6.72458,0.22281,-0.39265,-9.84436
6.73462,0.17792,-0.46298,-9.7661
6.74465,0.15727,-0.50787,-9.69053
6.75469,0.13901,-0.53181,-9.61945
6.76473,0.13782,-0.47764,-9.64265
6.77477,0.21563,-0.48902,-9.70983
6.7848,0.28087,-0.43679,-9.77343
6.79484,0.28177,-0.34506,-9.85768
6.80488,0.2686,-0.31349,-9.8882
6.81491,0.27683,-0.3102,-9.87264
6.82495,0.25079,-0.30616,-9.75951
6.83499,0.20096,-0.28087,-9.69173
6.84502,0.1465,-0.30496,-9.72614
6.85506,0.08933,-0.34072,-9.83508
6.8651,0.06749,-0.38367,-9.90556
6.87513,0.11881,-0.36916,-9.92935
6.88517,0.14635,-0.27084,-9.94506
6.89521,0.09517,-0.23328,-9.9114
6.90524,-0.05492,-0.25962,-9.82012
6.91528,-0.25408,-0.36886,-9.70205
6.92532,-0.39699,-0.53271,-9.63382
6.93535,-0.40133,-0.60723,-9.65611
6.94539,-0.34551,-0.52762,-9.75173
6.95543,-0.28192,-0.35973,-9.87099
6.96546,-0.27054,-0.23403,-9.94761
6.9755,-0.3524,-0.27384,-9.96048
6.98554,-0.46941,-0.38472,-9.994
6.99557,-0.52897,-0.47375,-10.1173
7.00561,-0.52074,-0.53091,-10.11101
7.01565,-0.5384,-0.49904,-10.00312
7.02568,-0.58029,-0.43859,-9.90421
7.03572,-0.63551,-0.43649,-9.81293
7.04576,-0.76285,-0.54229,-9.72929
7.05579,-0.87897,-0.7015,-9.868
7.06583,-0.9291,-0.77572,-10.12957
7.07587,-0.92222,-0.7434,-10.2605
7.0859,-0.83378,-0.6418,-10.2005
7.09594,-0.68235,-0.54094,-9.99415
7.10598,-0.55501,-0.51849,-9.76715
7.11601,-0.54722,-0.52134,-9.69831
7.12605,-0.65332,-0.58284,-9.78046
7.13609,-0.79502,-0.68833,-9.91574
7.14613,-0.908,-0.75537,-10.05355
7.15616,-0.91159,-0.77677,-10.15546
7.1662,-0.82944,-0.76929,-10.12658
7.17624,-0.73697,-0.6593,-9.931
7.18627,-0.72844,-0.60109,-9.73258
7.19631,-0.76136,-0.65302,-9.70953
7.20634,-0.78829,-0.73966,-9.7028
7.21638,-0.87508,-0.77228,-9.7438
7.22642,-1.01604,-0.81657,-9.87189
7.23646,-1.07904,-0.90052,-10.06433
7.24649,-1.12123,-0.91773,-10.22115
7.25653,-1.19979,-0.93,-10.51982
7.26657,-1.25172,-0.94526,-10.73844
7.2766,-1.35781,-0.99898,-10.72827
7.28664,-1.36065,-1.09131,-10.62188
7.29668,-1.27746,-1.08831,-10.52222
7.30671,-1.17226,-0.9689,-10.39787
7.31675,-1.13425,-0.89513,-10.25541
7.32679,-1.1784,-0.96217,-10.21845
7.33682,-1.28284,-1.09625,-10.35073
7.34686,-1.37442,-1.20668,-10.52311
7.3569,-1.33043,-1.27057,-10.72498
7.36693,-1.26219,-1.18543,-10.78722
7.37697,-1.25995,-1.05569,-10.70822
7.38701,-1.30289,-1.06183,-10.65884
7.39704,-1.32773,-1.18947,-10.6319
7.40708,-1.35018,-1.24274,-10.59045
7.41712,-1.31187,-1.22942,-10.54332
7.42715,-1.22419,-1.20503,-10.44081
7.43719,-1.17675,-1.24903,-10.26439
7.44723,-1.25651,-1.34779,-10.04801
7.45727,-1.40136,-1.47543,-9.95494
7.4673,-1.51688,-1.63539,-10.11311
7.47734,-1.55054,-1.74043,-10.30075
7.48738,-1.46495,-1.7545,-10.36225
7.49741,-1.36664,-1.68118,-10.31093
7.50745,-1.24783,-1.59963,-10.09949
7.51749,-1.19471,-1.56072,-9.82715
7.52752,-1.22044,-1.57898,-9.66868
7.53756,-1.31995,-1.60307,-9.68455
7.5476,-1.4446,-1.6948,-9.81204
7.55763,-1.50969,-1.84129,-9.92157
7.56767,-1.51373,-1.97207,-9.92681
7.57771,-1.44595,-2.03821,-9.81099
7.58774,-1.37951,-2.12216,-9.65462
7.59778,-1.45403,-2.20057,-9.86082
7.60782,-1.59633,-2.30247,-10.21292
7.61785,-1.72966,-2.44418,-10.26364
7.62789,-1.88229,-2.6031,-10.17266
7.63793,-1.84952,-2.77697,-10.05625
7.64796,-1.63569,-2.76141,-9.95374
7.658,-1.40914,-2.6034,-9.91499
7.66804,-1.29197,-2.49625,-10.02347
7.67807,-1.32429,-2.54339,-9.98711
7.68811,-1.48845,-2.77338,-10.06163
7.69815,-1.6936,-3.04946,-10.29611
7.70818,-1.87032,-3.2407,-10.51069
7.71822,-2.01816,-3.32689,-10.56426
7.72826,-2.07413,-3.32914,-10.34699
7.73829,-2.07054,-3.36625,-9.99744
7.74833,-2.07951,-3.47578,-9.76445
7.75837,-2.09403,-3.61031,-9.85947
7.76841,-2.18097,-3.64547,-10.1586
7.77844,-2.1895,-3.60133,-10.42001
7.78848,-2.1039,-3.47698,-10.63819
7.79852,-2.00006,-3.24908,-10.67994
7.80855,-1.83665,-2.92631,-10.76014
7.81859,-1.97686,-2.54788,-11.2125
7.82863,-2.23858,-2.41799,-11.90876
7.83866,-2.33195,-2.51227,-12.40436
7.8487,-2.48249,-2.64709,-12.31981
7.85874,-2.59322,-2.80122,-11.76391
7.86877,-2.69123,-2.95804,-11.13887
7.87881,-2.76455,-3.08643,-10.60527
7.88885,-2.77608,-3.18519,-10.36944
7.89888,-2.91105,-3.40186,-10.94883
7.90892,-3.11486,-3.78972,-11.83155
7.91896,-3.27362,-4.05922,-11.97759
7.92899,-3.33542,-4.15693,-11.74087
7.93903,-3.10034,-4.09379,-11.48588
7.94907,-2.85314,-3.71954,-11.50549
7.9591,-2.83294,-3.21047,-11.65288
7.96914,-2.60519,-2.85733,-11.91115
7.97918,-2.13234,-2.92601,-12.59081
7.98921,-1.57793,-3.09795,-13.16197
7.99925,-1.0949,-3.04991,-13.46768
8.00929,-0.7856,-2.79807,-13.5633
8.01932,-0.46822,-2.44822,-13.24876
8.02936,-0.14545,-2.11079,-12.33029
8.0394,0.07602,-1.88409,-11.28268
8.04943,0.22491,-1.78997,-10.54047
8.05947,0.22221,-1.71978,-10.11206
8.06951,0.33878,-1.84129,-10.53853
8.07955,0.56009,-1.90608,-11.14396
8.08958,0.82091,-1.64152,-11.39161
8.09962,1.32594,-1.33731,-11.56998
8.10966,1.86104,-0.93703,-11.13798
8.11969,2.21389,-0.52583,-10.29222
8.12973,2.355,-0.31035,-9.7652
8.13977,2.26372,-0.21533,-9.58459
8.1498,2.25279,-0.14919,-9.31793
8.15984,2.3553,-0.22146,-8.81036
8.16988,2.52139,-0.54348,-8.2184
8.17991,2.8301,-0.96367,-8.36773
8.18995,3.09331,-1.58391,-9.76266
8.19999,3.50092,-1.87511,-10.93941
8.21002,3.8831,-1.41348,-11.26292
8.22006,3.99832,-0.58927,-10.80638
8.2301,3.92275,0.19303,-9.63352
8.24013,3.6769,0.58613,-8.44869
8.25017,3.26524,0.55022,-7.93169
8.26021,2.9302,0.2478,-8.05769
8.27024,2.66639,-0.06419,-7.82844
8.28028,2.40034,-0.36212,-7.44268
8.29032,2.13563,-0.74564,-7.00678
8.30035,2.01143,-1.13874,-6.50325
8.31039,1.95831,-1.51643,-6.08157
8.32043,1.97866,-1.80807,-5.92385
8.33047,2.11992,-1.94649,-5.92789
8.3405,2.26536,-2.01143,-5.83916
8.35054,2.40064,-1.92284,-5.75581
8.36058,2.33584,-1.74807,-5.9038
8.37061,1.97806,-1.68522,-6.26622
8.38065,1.50476,-1.78009,-6.69718
8.39069,1.11151,-2.07308,-6.82123
8.40072,0.72784,-2.36442,-6.5227
8.41076,0.4522,-2.63332,-6.2146
8.4208,0.38741,-2.81827,-5.99733
8.43083,0.48183,-2.87529,-5.75297
8.44087,0.58688,-2.79957,-5.42032
8.45091,0.70704,-2.67148,-5.23552
8.46094,0.77662,-2.65622,-5.37887
8.47098,0.75238,-2.82845,-5.69132
8.48102,0.53076,-3.06218,-6.11793
8.49105,0.09263,-3.21796,-6.48978
8.50109,-0.4329,-3.35054,-6.01768
8.51113,-0.4329,-3.35054,-6.01768
8.52116,-0.33713,-3.46845,-5.62308
8.5312,-0.06075,-3.63859,-5.26335
8.54124,0.01601,-3.69934,-5.06404
8.55127,-0.35449,-3.74902,-5.16624
8.56131,-0.7859,-3.91661,-5.55829
8.57135,-0.94975,-4.01927,-5.85337
8.58139,-0.62159,-3.99547,-5.54108
8.59142,-0.01107,-3.76952,-4.78137
8.60146,0.4739,-3.49583,-4.18073
8.6115,0.55306,-3.30011,-3.9633
8.62153,0.2065,-3.21032,-4.04725
8.63157,-0.35344,-3.21945,-4.35475
8.64161,-0.96516,-3.41697,-4.68036
8.65164,-1.33058,-3.71386,-5.00553
8.66168,-1.35407,-3.87921,-5.10399
8.67172,-1.19815,-3.83671,-5.09456
8.68175,-0.99928,-3.55973,-4.96513
8.69179,-0.80251,-3.21511,-4.52654
8.70183,-0.98417,-2.96612,-3.82279
8.71186,-1.49428,-2.9522,-3.71685
8.7219,-1.68657,-3.19087,-4.17878
8.73194,-1.72757,-3.33632,-4.90213
8.74197,-1.89067,-3.23696,-5.81986
8.75201,-2.14805,-3.00652,-6.86029
8.76205,-2.66624,-2.85359,-7.71576
8.77208,-3.06862,-3.05814,-7.68165
8.78212,-3.09914,-3.49793,-6.70362
8.79216,-2.92661,-3.82519,-6.20353
8.80219,-2.86152,-3.9021,-6.73264
8.81223,-3.11321,-3.69635,-7.89129
8.82227,-3.20269,-3.59594,-8.85226
8.8323,-3.09899,-3.56946,-9.24326
8.84234,-3.12832,-3.40725,-9.38333
8.85238,-2.99275,-3.263,-9.10799
8.86241,-2.58813,-3.20898,-8.45153
8.87245,-2.21883,-3.19386,-7.75287
8.88249,-2.19982,-3.16095,-7.53485
8.89253,-2.49057,-3.12473,-7.94067
8.90256,-2.67582,-3.26764,-8.3598
8.9126,-2.62405,-3.51394,-8.17695
8.92264,-2.50987,-3.70877,-7.68329
8.93267,-2.37804,-3.87112,-7.33778
8.94271,-2.30666,-3.84808,-7.54742
8.95275,-2.22361,-3.56856,-8.0499
8.96278,-2.13742,-3.19536,-8.26688
8.97282,-2.06799,-2.82965,-8.36474
8.98286,-1.97836,-2.69078,-8.6094
8.99289,-1.80643,-2.71188,-9.07507
9.00293,-1.54606,-2.89205,-9.33679
9.01297,-1.12542,-3.1982,-9.0634
9.023,-0.87314,-3.37343,-8.86528
9.03304,-0.80909,-3.31956,-8.83356
9.04308,-0.62414,-3.0749,-8.54281
9.05311,-0.44308,-2.61626,-8.10512
9.06315,-0.23014,-2.02505,-7.85074
9.07382,0.02604,-1.42515,-7.96386
9.08385,0.05926,-0.75238,-8.60581
9.09389,-0.07946,-0.21997,-9.54329
9.10393,-0.01212,-0.1239,-10.42884
9.11396,0.17792,-0.39579,-10.95856
9.124,0.20725,-0.65646,-11.05867
9.13404,0.11851,-0.67636,-10.56561
9.14407,-0.09008,-0.40357,-10.01165
9.15411,-0.28207,-0.16191,-9.55301
9.16415,-0.7012,-0.16774,-9.26466
9.17418,-1.08248,-0.36093,-9.37569
9.18422,-0.98342,-0.81508,-9.83314
9.19426,-0.63536,-1.40779,-10.53239
9.20429,-0.55815,-1.39372,-11.16641
9.21433,-0.8453,-0.6403,-12.1802
9.22437,-1.25127,0.38951,-12.97942
9.23441,-1.71664,1.2408,-13.33211
9.24444,-2.05812,1.31038,-13.29695
9.25448,-1.89097,0.34731,-12.89382
9.26451,-1.26055,-0.91294,-12.655
9.27455,-0.82615,-1.55623,-12.54412
9.28459,-0.67068,-1.38265,-12.3861
9.29463,-0.87718,-0.66693,-12.88799
9.30466,-1.11001,-0.15473,-13.98782
9.3147,-1.07425,0.04489,-14.55824
9.32474,-0.87613,-0.13168,-14.70204
9.33477,-0.31588,-0.68339,-14.51919
9.34481,0.06599,-1.0545,-14.43614
9.35485,0.09741,-0.96022,-14.96735
9.36488,0.07557,-0.73382,-15.87565
9.37492,-0.12046,-0.59227,-16.13722
9.38496,-0.24211,-0.73502,-15.57458
9.39499,-0.05746,-1.13889,-14.40262
9.40503,0.32576,-1.38594,-13.51257
9.41507,0.66888,-1.35572,-13.04586
9.4251,0.87508,-1.1561,-12.97268
9.43514,0.85293,-0.92521,-13.0894
9.44518,0.92237,-0.87822,-13.01279
9.45521,1.0337,-0.9086,-12.87272
9.46525,1.1356,-0.84785,-12.66428
9.47529,1.31217,-0.73921,-12.33163
9.48533,1.36021,-0.73188,-11.89454
9.49536,1.29392,-0.77647,-11.34073
9.5054,1.32893,-0.95334,-10.86219
9.51544,1.25785,-1.18274,-10.22758
9.52547,0.73816,-1.30274,-9.64968
9.53551,0.44353,-1.60322,-9.82012
9.54555,0.48827,-1.80253,-10.34939
9.55558,0.42677,-1.6315,-10.93926
9.56562,0.46627,-1.44625,-11.4178
9.57566,0.68399,-1.28823,-11.76032
9.58569,0.94451,-1.12752,-11.49322
9.59573,1.09804,-0.97309,-10.8782
9.60577,1.10732,-0.94376,-10.23566
9.6158,1.11989,-1.0735,-9.8276
9.62584,0.92611,-1.17076,-9.86336
9.63588,0.43634,-1.40959,-10.12388
9.64591,0.13916,-1.80253,-10.24225
9.65595,0.23299,-2.09553,-10.13466
9.66599,0.47226,-2.10465,-9.89149
9.67602,0.61366,-1.8793,-9.74425
9.68606,0.63102,-1.63075,-9.68978
9.6961,0.50473,-1.61235,-9.74934
9.70614,0.49231,-1.77096,-9.95629
9.71617,0.59571,-1.81974,-10.1788
9.72621,0.63297,-1.67444,-10.15725
9.73625,0.67846,-1.54291,-9.95584
9.74628,0.48019,-1.74253,-9.56723
9.75695,0.48019,-1.74253,-9.56723
9.76698,0.46253,-2.00739,-9.57142
9.77702,0.46073,-2.10181,-9.60763
9.78706,0.33459,-2.03986,-9.85379
9.79709,0.11432,-1.97522,-9.94761
9.80713,-0.23538,-2.03806,-9.78465
9.81717,-0.4959,-2.24202,-9.61496
9.82721,-0.52672,-2.34183,-9.42567
9.83724,-0.46702,-2.19219,-9.49974
9.84728,-0.3705,-1.99632,-9.64399
9.85732,-0.29613,-1.90294,-9.78031
9.86735,-0.22805,-1.88199,-9.90107
9.87739,-0.20411,-1.8579,-9.94342
9.88743,-0.22954,-1.83979,-9.95404
9.89746,-0.27728,-1.85955,-9.78465
9.9075,-0.38801,-1.90115,-9.38991
9.91754,-0.54513,-1.95202,-9.07627
9.92757,-0.65945,-2.0644,-9.05517
9.93761,-0.68744,-2.09687,-9.21768
9.94765,-0.6804,-1.98913,-9.50244
9.95768,-0.66364,-1.95322,-9.55227
9.96772,-0.5761,-1.97058,-9.26212
9.97776,-0.55201,-1.96968,-9.12894
9.98779,-0.60334,-1.88214,-9.23219
9.99783,-0.71706,-1.80672,-9.61182
10.00787,-0.69746,-1.87421,-9.89105
10.01791,-0.62264,-1.92195,-9.80231
10.02794,-0.57162,-1.86239,-9.63846
10.03798,-0.50727,-1.78772,-9.41565
10.04802,-0.47645,-1.78533,-9.30477
10.05805,-0.50398,-1.83396,-9.30387
10.06809,-0.61366,-1.87571,-9.31793
10.07813,-0.72769,-1.939,-9.46009
10.08816,-0.72095,-2.00095,-9.64998
10.0982,-0.65332,-1.96863,-9.72181
10.10824,-0.56129,-1.87271,-9.8496
10.11827,-0.55845,-1.76228,-9.9084
10.12831,-0.54169,-1.75076,-9.72001
10.13835,-0.38502,-1.92539,-9.28202
10.14838,-0.28925,-1.98419,-9.01312
10.15842,-0.35718,-1.91357,-9.00504
10.16846,-0.44263,-1.87212,-9.11936
10.17849,-0.56877,-1.92599,-9.40128
10.18853,-0.72574,-2.00021,-9.75532
10.19857,-0.74564,-2.08026,-9.85917
10.2086,-0.63162,-2.06605,-9.70205
10.21864,-0.46702,-1.93212,-9.44857
10.22868,-0.35329,-1.7955,-9.30836
10.23872,-0.32591,-1.73505,-9.34337
10.24875,-0.3928,-1.77799,-9.52967
10.25879,-0.50114,-1.83381,-9.82984
10.26883,-0.53884,-1.85416,-10.09291
10.27886,-0.46477,-1.79984,-10.14468
10.2889,-0.36048,-1.73415,-9.95554
10.29894,-0.23493,-1.72173,-9.66255
10.30897,-0.18106,-1.75899,-9.36926
10.31901,-0.18301,-1.81735,-9.17293
10.32905,-0.29733,-1.84653,-9.17219
10.33908,-0.47749,-1.92868,-9.209
10.34912,-0.61247,-2.02041,-9.26451
10.35916,-0.6822,-2.13039,-9.269
10.36919,-0.6611,-2.18635,-9.26795
10.37923,-0.57521,-2.14087,-9.35684
10.38927,-0.46777,-1.99916,-9.45246
10.3993,-0.41839,-1.84728,-9.51665
10.40934,-0.40761,-1.79894,-9.56917
10.41938,-0.46043,-1.81076,-9.56484
10.42942,-0.60678,-1.83725,-9.62454
10.43945,-0.77408,-1.90174,-9.69188
10.44949,-0.84321,-2.00664,-9.68829
10.45953,-0.80355,-2.0252,-9.55361
10.46956,-0.68474,-1.94978,-9.395
10.4796,-0.54318,-1.79655,-9.33365
10.48964,-0.5182,-1.68821,-9.33739
10.49967,-0.59735,-1.70288,-9.46607
10.50971,-0.7226,-1.74852,-9.73258
10.51975,-0.804,-1.79984,-9.9696
10.52978,-0.78231,-1.79326,-10.02033
10.53982,-0.7208,-1.6728,-9.96497
10.54986,-0.62339,-1.59289,-9.77163
10.5599,-0.60094,-1.59319,-9.60479
10.56993,-0.69507,-1.64901,-9.5783
10.57997,-0.81283,-1.72487,-9.6398
10.59001,-0.92506,-1.85177,-9.58399
10.60004,-1.06527,-1.96235,-9.43675
10.61008,-1.12602,-2.02998,-9.27933
10.62012,-1.06826,-2.08655,-9.11308
10.63015,-0.92536,-2.03507,-9.03991
10.64019,-0.80819,-1.90803,-9.13657
10.65023,-0.72021,-1.78458,-9.32197
10.66026,-0.68938,-1.71395,-9.42732
10.6703,-0.77422,-1.73071,-9.50708
10.68034,-0.886,-1.76827,-9.58459
10.69037,-0.85952,-1.82483,-9.66539
10.70041,-0.75133,-1.80702,-9.56588
10.71045,-0.67217,-1.68492,-9.40547
10.72048,-0.62489,-1.59244,-9.19403
10.73052,-0.7,-1.64646,-9.06864
10.74056,-0.76435,-1.83321,-9.18685
10.7506,-0.77153,-2.00978,-9.40652
10.76063,-0.75836,-1.9598,-9.53401
10.77067,-0.70539,-1.86389,-9.52473
10.78071,-0.65062,-1.82932,-9.41699
10.79074,-0.65317,-1.84533,-9.29654
10.80078,-0.72514,-1.88005,-9.33245
10.81082,-0.82136,-1.90519,-9.43839
10.82085,-0.89887,-1.92359,-9.56902
10.83089,-0.94272,-1.92494,-9.82131
10.84093,-0.96621,-1.89247,-10.00642
10.85096,-0.9496,-1.82633,-10.0115
10.861,-0.93164,-1.7349,-9.94821
10.87104,-0.94751,-1.66966,-9.87429
10.88107,-1.06572,-1.64661,-9.96108
10.89111,-1.14682,-1.69031,-10.1366
10.90115,-1.16029,-1.71081,-10.28699
10.91119,-1.12004,-1.63704,-10.41837
10.92122,-1.09909,-1.53812,-10.36974
10.93126,-1.08637,-1.49982,-10.06133
10.9413,-1.08203,-1.55653,-9.69786
10.95133,-1.10253,-1.62985,-9.38826
10.96137,-1.21266,-1.68851,-9.33799
10.97141,-1.25097,-1.74418,-9.47835
10.98144,-1.26189,-1.73071,-9.56738
10.99148,-1.23077,-1.72128,-9.66958
11.00152,-1.17765,-1.68522,-9.6639
11.01155,-1.1347,-1.62925,-9.59102
11.02159,-1.05135,-1.59903,-9.50737
11.03163,-0.98222,-1.57733,-9.49959
11.04166,-0.95349,-1.55788,-9.61526
11.0517,-0.91683,-1.56147,-9.75203
11.06174,-0.86655,-1.53049,-9.78824
11.07178,-0.82615,-1.47662,-9.77972
11.08181,-0.84455,-1.45702,-9.75233
11.09185,-0.8896,-1.52107,-9.8056
11.10189,-0.87762,-1.59903,-9.86695
11.11192,-0.84291,-1.57134,-9.76595
11.12196,-0.87044,-1.54022,-9.58339
11.132,-0.83288,-1.57763,-9.4164
11.14203,-0.73337,-1.64646,-9.27843
11.15207,-0.67322,-1.62881,-9.24955
11.16211,-0.703,-1.55952,-9.28307
11.17214,-0.77527,-1.57703,-9.35594
11.18218,-0.81538,-1.66143,-9.44064
11.19222,-0.84725,-1.72188,-9.55242
11.20225,-0.81552,-1.70587,-9.61242
11.21229,-0.71856,-1.66008,-9.57755
11.22233,-0.60259,-1.62342,-9.52174
11.23237,-0.49769,-1.56521,-9.50678
11.2424,-0.40881,-1.53154,-9.47266
11.25244,-0.31963,-1.52211,-9.44198
11.26248,-0.32816,-1.50954,-9.37854
11.27251,-0.46133,-1.54635,-9.43106
11.28255,-0.59795,-1.67699,-9.64414
11.29259,-0.65317,-1.75704,-9.82251
11.30262,-0.64913,-1.73295,-9.8493
11.31266,-0.54244,-1.66921,-9.66045
11.3227,-0.42063,-1.59963,-9.48717
11.33273,-0.34671,-1.56536,-9.39021
11.34277,-0.40043,-1.54187,-9.39739
11.35281,-0.54049,-1.6092,-9.55152
11.36284,-0.69626,-1.75794,-9.65941
11.37288,-0.77273,-1.86089,-9.62334
11.38292,-0.74744,-1.90578,-9.52159
11.39296,-0.6614,-1.82842,-9.36956
11.40299,-0.56563,-1.73475,-9.2268
11.41303,-0.5369,-1.71395,-9.22725
11.42307,-0.52972,-1.76153,-9.36058
11.4331,-0.53061,-1.81316,-9.477
11.44314,-0.5351,-1.797,-9.51276
11.45318,-0.51401,-1.7533,-9.46772
11.46321,-0.43021,-1.75749,-9.29908
11.47325,-0.40701,-1.78129,-9.14795
11.48329,-0.40043,-1.79161,-9.19613
11.49332,-0.45131,-1.74193,-9.43241
11.50336,-0.50907,-1.67055,-9.80665
11.5134,-0.58673,-1.53483,-10.1773
11.52344,-0.70943,-1.46241,-10.37108
11.53347,-0.82809,-1.5061,-10.47388
11.54351,-0.91833,-1.57119,-10.44456
11.55355,-0.91324,-1.62821,-10.30195
11.56358,-0.85533,-1.60097,-10.03485
11.57362,-0.73652,-1.54067,-9.77313
11.58366,-0.70674,-1.44744,-9.67916
11.59369,-0.78724,-1.28254,-9.72884
11.60373,-1.0117,-1.22987,-9.9084
11.61377,-1.23421,-1.35063,-9.9907
11.6238,-1.3644,-1.50042,-9.80111
11.63384,-1.39417,-1.54965,-9.47475
11.64388,-1.24094,-1.54875,-9.16815
11.65391,-1.0732,-1.51119,-8.88473
11.66395,-0.91698,-1.47722,-8.75964
11.67399,-0.8679,-1.45897,-8.84253
11.68403,-0.87029,-1.49518,-9.07417
11.69406,-0.84381,-1.55219,-9.23264
11.7041,-0.88047,-1.59095,-9.21902
11.71414,-0.94197,-1.6318,-9.13283
11.72417,-0.98806,-1.68986,-9.04963
11.73421,-1.01499,-1.75106,-9.00833
11.74425,-0.99763,-1.76692,-9.08779
11.75428,-0.97085,-1.72218,-9.22501
11.76432,-0.96037,-1.6535,-9.40876
11.77436,-1.04851,-1.5905,-9.67422
11.78439,-1.18648,-1.63584,-9.83059
11.79443,-1.32639,-1.71694,-9.89359
11.80447,-1.3611,-1.73729,-9.95524
11.8145,-1.21416,-1.59963,-10.03694
11.82454,-0.98551,-1.38325,-10.14244
11.83458,-0.84815,-1.19381,-10.31078
11.84462,-0.84845,-1.11525,-10.4459
11.85465,-0.99015,-1.15775,-10.50695
11.86469,-1.05884,-1.30888,-10.52386
11.87473,-1.05255,-1.3433,-10.51563
11.88476,-0.94736,-1.20039,-10.44381
11.8948,-0.78021,-1.02532,-10.26693
11.90484,-0.60528,-0.9077,-10.01614
11.91487,-0.54737,-0.87733,-9.83508
11.92491,-0.58568,-0.91503,-9.8255
11.93495,-0.68788,-0.97758,-9.82505
11.94498,-0.81822,-1.03459,-9.83149
11.95502,-0.89633,-1.04896,-9.80934
11.96506,-0.92132,-1.06422,-9.7447
11.97509,-0.90695,-1.05988,-9.63606
11.98513,-0.84665,-1.04821,-9.50393
11.99517,-0.78081,-1.02337,-9.38138
12.00521,-0.74325,-0.98701,-9.34068
12.01524,-0.73906,-0.96621,-9.36986
12.02528,-0.86146,-0.95454,-9.50124
12.03532,-1.02083,-1.01798,-9.71223
12.04535,-1.14054,-1.14503,-9.7643
12.05539,-1.17361,-1.2387,-9.6214
12.06543,-1.10133,-1.2381,-9.44947
12.07547,-0.9915,-1.17346,-9.27648
12.0855,-0.92012,-1.06946,-9.18775
12.09554,-0.89663,-1.02532,-9.15617
12.10557,-1.0096,-1.01005,-9.26855
12.11561,-1.15221,-1.04103,-9.42837
12.12565,-1.18618,-1.13799,-9.48044
12.13569,-1.09355,-1.15281,-9.42193
12.14572,-1.0334,-1.03684,-9.26706
12.15576,-1.0114,-0.90202,-9.12774
12.1658,-1.01499,-0.81148,-9.04155
12.17583,-1.05509,-0.76255,-9.1258
12.18587,-1.0922,-0.75268,-9.20032
12.19591,-1.24992,-0.69836,-9.06998
12.20594,-1.49069,-0.71871,-9.02794
12.21598,-1.63868,-0.8043,-9.04993
12.22602,-1.69614,-0.8673,-9.01162
12.23605,-1.66143,-0.83647,-8.97915
12.24609,-1.55863,-0.66738,-9.01567
12.25613,-1.54381,-0.45909,-8.96299
12.26617,-1.70452,-0.33414,-8.96703
12.2762,-1.95307,-0.39549,-9.03048
12.28624,-2.19713,-0.48602,-9.14944
12.29628,-2.36951,-0.52029,-9.34996
12.30631,-2.39675,-0.50248,-9.42657
12.31635,-2.31923,-0.42692,-9.31973
12.32639,-2.29035,-0.32232,-9.03527
12.33642,-2.36248,-0.25064,-8.73031
12.34646,-2.45855,-0.32711,-8.63065
12.3565,-2.62823,-0.4736,-8.73135
12.36653,-2.80256,-0.55231,-9.0845
12.37657,-2.99934,-0.57461,-9.45156
12.38661,-3.13536,-0.63491,-9.65641
12.39665,-3.17247,-0.67666,-9.70131
12.40668,-3.08613,-0.66813,-9.61302
12.41672,-2.93529,-0.5161,-9.45919
12.42676,-2.75109,-0.19617,-9.45844
12.43679,-2.61342,0.1052,-9.42971
12.44683,-2.70455,0.25992,-9.60449
12.45687,-3.41593,0.52298,-9.98906
12.4669,-4.29625,0.48004,-10.72258
12.47694,-4.96453,-0.07108,-11.19693
12.48698,-5.47554,-0.73292,-11.34073
12.49701,-5.80818,-1.10926,-11.30392
12.50705,-5.88944,-0.9921,-11.15159
12.51709,-5.75761,-0.54872,-10.89018
12.52713,-5.64523,-0.0401,-10.8592
12.53716,-5.72259,0.17493,-11.24332
12.5472,-6.15849,0.05641,-11.87584
12.55724,-6.95351,-0.36811,-12.51449
12.56727,-7.15343,-0.79487,-12.87063
12.57731,-7.02803,-0.95933,-13.11903
12.58735,-7.02608,-0.86191,-13.57213
12.59738,-6.98434,-0.71407,-14.3061
12.60742,-7.07337,-0.64464,-14.8855
12.61746,-7.22645,-0.77976,-15.11834
12.62749,-7.20909,-1.11959,-14.96885
12.63753,-7.03701,-1.57284,-14.68394
12.64757,-6.67773,-1.87167,-14.65012
12.65761,-6.41422,-1.68731,-15.26797
12.66764,-6.33251,-1.37741,-16.6421
12.67768,-6.20562,-1.36978,-18.30083
12.68772,-5.9035,-1.50865,-19.5533
12.69775,-5.30495,-1.54007,-19.89342
12.70779,-4.55452,-1.31831,-19.53923
12.71783,-3.78389,-0.98731,-19.0155
12.72786,-3.21107,-0.68564,-18.51092
12.7379,-2.70216,-0.55231,-17.99946
12.74794,-2.29155,-0.61052,-17.69106
12.75797,-1.95053,-0.71407,-17.29885
12.76801,-1.63898,-0.85952,-16.58059
12.77805,-1.39567,-1.00586,-15.6892
12.78809,-1.12782,-1.06437,-14.74978
12.79812,-0.72784,-1.07694,-14.79317
12.80816,-0.33414,-0.92117,-15.57817
12.8182,-0.04923,-0.45969,-15.70058
12.82823,0.05731,-0.11477,-15.25989
12.83827,0.01945,0.07751,-14.40471
12.84831,0.17478,0.06809,-13.11544
12.85834,0.66693,-0.01781,-11.56998
12.86838,1.04267,-0.1245,-10.3232
12.87842,1.02921,-0.22446,-9.91604
12.88846,0.83064,-0.28985,-10.13286
12.89849,0.56354,-0.42318,-10.36285
12.90853,0.27653,-0.71721,-10.38515
12.91857,0.25693,-0.99419,-9.9497
12.9286,0.33085,-1.13725,-9.30132
12.93864,0.42018,-1.12423,-8.87052
12.94868,0.78365,-1.06692,-8.77445
12.95871,1.16762,-0.97728,-8.64501
12.96875,1.44101,-0.85772,-8.07893
12.97879,1.68178,-0.83318,-7.20565
12.98882,1.78144,-0.94825,-6.24946
12.99886,1.93496,-1.02577,-5.44142
13.0089,2.00125,-0.98492,-5.34401
13.01893,1.99452,-1.00452,-5.67456
13.02897,1.82378,-1.13171,-5.9038
13.03901,1.51583,-1.36125,-6.03818
13.04905,1.3228,-1.62402,-6.13215
13.05908,1.18782,-1.84473,-6.03743
13.06912,1.25396,-1.92374,-5.78005
13.07978,1.57419,-2.11378,-5.27039
13.08982,1.89067,-2.3348,-4.89539
13.09986,2.26536,-2.44283,-4.96468
13.1099,2.44448,-2.39091,-5.19078
13.11993,2.42443,-2.17049,-5.38366
13.12997,2.36802,-1.78622,-5.65436
13.14,2.18381,-1.47393,-5.98236
13.15004,1.97417,-1.39058,-6.40299
13.16008,1.63195,-1.41871,-6.84068
13.17012,1.07993,-1.64302,-7.05915
13.18015,0.66095,-1.95142,-6.80223
13.19019,0.45954,-2.22332,-6.34987
13.20023,0.46852,-2.34033,-6.18003
13.21026,0.68115,-2.22736,-6.27341
13.2203,0.9297,-1.94259,-6.56116
13.23034,1.0928,-1.63913,-6.8353
13.24038,1.25471,-1.50356,-7.11647
13.25041,1.2173,-1.47184,-7.42008
13.26045,1.09385,-1.42305,-7.56837
13.27049,1.04088,-1.41063,-7.37175
13.28052,1.05016,-1.3822,-7.1633
13.29056,1.07724,-1.32295,-7.05571
13.3006,1.0958,-1.30723,-7.04
13.31063,0.95155,-1.38475,-7.018
13.32067,0.85114,-1.80583,-6.67937
13.33071,0.65302,-2.54249,-6.09444
13.34074,0.33878,-3.16708,-5.52896
13.35078,0.18555,-3.48446,-5.43499
13.36082,0.08574,-3.4496,-5.78589
13.37085,0.0627,-3.08134,-6.20577
13.38089,0.02155,-2.58095,-6.4223
13.39093,-0.15368,-2.40797,-6.5854
13.40097,-0.20201,-2.55776,-6.54246
13.411,-0.09337,-2.90896,-6.05673
13.42104,-0.09248,-3.26913,-5.66304
13.43108,-0.33549,-3.40441,-5.33443
13.44111,-0.61666,-3.4074,-4.9973
13.45115,-0.78769,-3.4291,-4.6639
13.46119,-0.9288,-3.57499,-4.81384
13.47122,-0.87074,-3.79271,-5.30794
13.48126,-0.71198,-3.8186,-5.5333
13.4913,-0.86161,-3.64637,-5.61171
13.50133,-0.91833,-3.39019,-5.77197
13.51137,-0.89094,-3.06488,-5.6355
13.52141,-1.09221,-2.99814,-5.16055
13.53145,-1.15026,-3.18354,-4.57502
13.54148,-0.8688,-3.41862,-4.294
13.55152,-0.93329,-3.54521,-4.59283
13.56156,-1.39507,-3.4258,-5.64508
13.57159,-1.61713,-3.21601,-6.86103
13.58163,-1.59125,-2.93873,-7.49969
13.59167,-1.51014,-2.59277,-7.32701
13.6017,-1.31502,-2.51227,-6.66246
13.61174,-1.27716,-2.63078,-5.71451
13.62178,-1.59155,-2.69198,-4.94163
13.63181,-2.26072,-2.68764,-4.93535
13.64185,-2.92167,-2.74076,-5.6997
13.65189,-3.07266,-2.81812,-6.49607
13.66193,-2.84431,-2.77204,-7.11871
13.67196,-2.17274,-2.5817,-7.3713
13.682,-1.47393,-2.21524,-7.0385
13.69204,-1.54261,-1.64422,-6.84278
13.70207,-2.07772,-1.39791,-6.80208
13.71211,-2.5205,-1.50655,-6.55143
13.72215,-2.40917,-1.75256,-6.50415
13.73218,-1.69988,-2.11827,-5.89946
13.74222,-1.11226,-2.23603,-4.81294
13.75226,-1.25157,-2.03762,-3.68902
13.76292,-1.82543,-1.7337,-3.22559
13.77296,-2.17109,-1.66158,-3.92933
13.783,-2.34901,-1.79386,-4.84048
13.79303,-2.66011,-1.9806,-5.55589
13.80307,-3.03929,-2.15972,-6.16058
13.81311,-3.36924,-2.48054,-6.98643
13.82314,-3.48042,-2.92332,-7.80315
13.83318,-3.28185,-3.38166,-8.35546
13.84322,-3.00577,-3.58217,-8.58815
13.85326,-3.02597,-3.15511,-8.82368
13.86329,-3.22514,-2.46573,-9.02868
13.87333,-3.13341,-2.35694,-9.42103
13.88337,-2.60414,-2.77608,-9.55227
13.8934,-2.37729,-3.24983,-9.58997
13.90344,-2.56524,-3.47369,-9.44483
13.91348,-2.88741,-3.31462,-9.37285
13.92351,-3.25237,-2.95759,-9.59042
13.93355,-3.04932,-3.05874,-9.74919
13.94359,-3.08717,-3.35547,-10.09066
13.95362,-2.96836,-3.47593,-10.69265
13.96366,-2.82067,-3.32585,-11.252
13.9737,-3.09495,-2.38642,-11.35645
13.98374,-3.00263,-0.90246,-10.96455
13.99377,-2.58993,0.29164,-10.40161
14.00381,-2.34796,0.70838,-10.1562
14.01385,-1.99317,0.28835,-10.15441
14.02388,-1.64033,-0.44757,-11.0021
14.03392,-1.6719,-0.81777,-12.16105
14.04396,-2.11213,-0.54947,-12.86928
14.05399,-2.70335,0.17388,-12.89367
14.06403,-3.08523,0.99733,-12.09551
14.07407,-3.25267,1.6933,-11.87883
14.0841,-2.56599,1.7129,-11.73398
14.09414,-1.41677,1.39417,-12.07336
14.10418,-0.33893,1.321,-13.38015
14.11422,-0.04923,1.79236,-14.73272
14.12425,-0.91937,2.66684,-15.43751
14.13429,-2.10001,3.36715,-15.44021
14.14433,-3.02642,3.69066,-15.14497
14.15436,-3.24699,3.54237,-14.41414
14.1644,-2.67193,3.0547,-13.84312
14.17444,-1.82483,2.79493,-14.02553
14.18447,-0.87643,2.92542,-14.8436
14.19451,-0.19722,3.3034,-16.04729
14.20455,0.02708,3.82234,-17.33447
14.21458,0.27563,4.15993,-18.34976
14.22462,0.32307,4.34697,-18.72715
14.23466,0.1031,4.40533,-18.36921
14.24469,0.3096,3.95791,-17.58361
14.25473,0.79832,3.15616,-16.3111
14.26477,1.02711,2.26895,-15.13599
14.27481,0.96696,1.62177,-14.50826
14.28484,0.74774,1.31277,-14.68618
14.29488,0.27339,1.38939,-15.69654
14.30492,-0.05222,1.4877,-16.32067
14.31495,0.36497,1.29107,-15.71778
14.32499,0.99943,1.31442,-14.45424
14.33503,1.20294,1.74163,-13.37581
14.34506,1.70692,1.69405,-12.74882
14.3551,2.38328,1.343,-12.2031
14.36514,2.98542,1.14712,-11.57133
14.37518,3.55434,1.09939,-10.75999
14.38521,3.90554,1.08068,-10.30539
14.39525,4.15678,1.02562,-10.3624
14.40529,4.32228,0.96905,-10.7371
14.41532,4.24642,0.97863,-11.08949
14.42536,4.07822,0.87912,-11.10431
14.4354,3.96136,0.65661,-10.76568
14.44543,3.99069,0.39474,-10.25601
14.45547,4.05593,0.30242,-10.035
14.46551,4.0682,0.42632,-10.04966
14.47554,3.77296,0.65646,-10.15201
14.48558,3.30789,0.64853,-10.18912
14.49562,2.79164,0.36766,-10.1375
14.50566,2.3318,0.02125,-9.81099
14.51569,1.83486,-0.14694,-9.31898
14.52573,1.40809,-0.37335,-9.01552
14.53577,1.13306,-0.6602,-8.80872
14.5458,0.96546,-0.74549,-8.47128
14.55584,0.91533,-0.71617,-8.11978
14.56588,0.9692,-0.60079,-8.02671
14.57591,0.97968,-0.38098,-8.20164
14.58595,0.9478,-0.23254,-8.49657
14.59599,0.7856,-0.19019,-8.84433
14.60603,0.62219,-0.2668,-8.98289
14.61606,0.48288,-0.34357,-8.88788
14.6261,0.42108,-0.37529,-8.76981
14.63614,0.3928,-0.32756,-8.61598
14.64617,0.39819,-0.24226,-8.74213
14.65621,0.517,-0.12689,-9.1855
14.66625,0.60738,0.01826,-9.50004
14.67628,0.56354,0.10924,-9.69726
14.68632,0.43844,0.0814,-9.62319
14.69636,0.11477,-0.03935,-9.33305
14.70639,-0.18794,-0.26396,-9.40487
14.71643,-0.33294,-0.52687,-9.65746
14.72647,-0.35464,-0.65945,-9.93848
14.73651,-0.20081,-0.50922,-10.22354
14.74654,-0.0217,-0.2484,-10.38994
14.75658,0.02768,-0.09517,-10.45817
14.76662,-0.05581,-0.13333,-10.48795
14.77665,-0.16774,-0.32322,-10.34699
14.78669,-0.30691,-0.54139,-10.06433
14.79673,-0.46986,-0.69282,-9.92052
14.80676,-0.51834,-0.79263,-10.02078
14.8168,-0.52373,-0.75417,-10.22324
14.82684,-0.42497,-0.70404,-10.53509
14.83688,-0.29823,-0.61995,-10.43902
14.84691,-0.25349,-0.57551,-10.05774
14.85695,-0.37185,-0.62878,-9.7429
14.86699,-0.58314,-0.76944,-9.70355
14.87702,-0.71377,-0.91668,-9.88641
14.88706,-0.69267,-0.91922,-10.16279
14.8971,-0.5357,-0.79802,-10.29207
14.90713,-0.43141,-0.621,-10.25826
14.91717,-0.45295,-0.54588,-10.24658
14.92721,-0.5372,-0.61441,-10.15291
14.93724,-0.70749,-0.73472,-10.02737
14.94728,-0.85608,-0.8474,-9.95838
14.95732,-0.81882,-0.87538,-9.85813
14.96736,-0.66948,-0.79877,-9.7673
14.97739,-0.50533,-0.65033,-9.73108
14.98743,-0.44951,-0.56578,-9.71747
14.99747,-0.44173,-0.5384,-9.82775
15.0075,-0.4757,-0.59631,-9.96392
15.01754,-0.45999,-0.64374,-9.95644
15.02758,-0.37888,-0.64898,-9.82356
15.03761,-0.24122,-0.58344,-9.64175
15.04765,-0.14664,-0.47076,-9.52892
15.05769,-0.20022,-0.38996,-9.6012
15.06772,-0.35614,-0.42347,-9.75712
15.07776,-0.41465,-0.61696,-9.80306
15.0878,-0.34312,-0.84186,-9.72016
15.09784,-0.19348,-0.88645,-9.64968
15.10787,-0.02245,-0.76315,-9.64594
15.11791,0.12315,-0.58374,-9.77283
15.12795,0.21473,-0.46507,-9.87952
15.13798,0.21323,-0.42751,-9.93055
15.14802,0.16041,-0.47121,-9.92157
15.15806,0.15906,-0.58553,-9.83134
15.16809,0.18061,-0.66619,-9.79633
15.17813,0.28356,-0.71063,-9.94551
15.18817,0.35419,-0.76181,-10.18867
15.1982,0.39325,-0.89304,-10.34056
15.20824,0.49291,-1.01828,-10.24643
15.21828,0.58897,-1.07066,-10.12987
15.22832,0.69537,-1.14054,-9.96586
15.23835,0.65766,-1.19545,-9.90631
15.24839,0.49575,-1.1754,-10.07794
15.25843,0.44338,-1.18932,-10.07121
15.26846,0.50218,-1.22927,-10.0769
15.2785,0.47764,-1.27626,-10.16039
15.28854,0.39684,-1.2586,-10.12179
15.29857,0.40941,-1.17855,-10.26679
15.30861,0.46029,-1.20189,-10.39757
15.31865,0.64299,-1.33402,-10.49184
15.32869,0.57371,-1.39986,-10.3627
15.33872,0.72619,-1.88932,-9.58743
15.34876,0.23837,-2.0632,-9.98068
15.3588,-0.6198,-1.84997,-10.3633
15.36883,-0.84246,-1.51852,-9.37749
15.37887,-0.63701,-1.36664,-9.23533
15.38891,-0.28581,-1.15924,-8.72118
15.39894,0.03546,-0.69118,-8.37222
15.40898,0.50009,-0.48827,-9.34606
15.41902,0.89259,-0.36631,-10.1764
15.42905,1.10612,-0.38427,-10.08947
15.43909,1.02936,-0.44038,-9.65073
15.44913,0.88705,-0.51176,-9.08899
15.45917,0.74879,-0.48363,-8.75365
15.4692,0.54992,-0.45879,-9.17263
15.47924,0.22416,-0.60858,-9.85438
15.48928,0.12465,-0.93254,-10.30958
15.49931,0.15173,-1.27686,-10.23716
15.50935,0.22461,-1.54576,-9.8484
15.51939,0.33908,-1.78353,-9.59207
15.52942,0.246,-1.8588,-9.61646
15.53946,-0.19603,-1.68043,-8.33586
15.5495,0.14949,-1.939,-7.62778
15.55954,0.02903,-1.87122,-9.47595
15.56957,0.1875,-1.26773,-9.25898
15.57961,0.24226,-0.83378,-9.62694
15.58965,0.43245,-0.72664,-9.79692
15.59968,0.59271,-0.867,-9.21139
15.60972,0.71198,-1.22867,-8.91631
15.61976,0.71198,-1.58167,-8.63259
15.62979,0.65781,-1.88768,-8.59743
15.63983,0.44921,-2.15852,-8.89177
15.64987,0.17373,-2.48952,-9.76864
15.6599,-0.15772,-2.40887,-9.91409
15.66994,-0.41315,-2.07862,-9.56454
15.67998,-0.31379,-1.89426,-9.40442
15.69002,-0.10594,-1.69734,-9.21573
15.70005,0.3527,-1.6092,-8.65624
15.71009,0.68564,-1.5504,-8.51917
15.72013,0.73562,-1.3424,-8.86618
15.73016,0.62309,-1.21311,-9.77822
15.7402,0.45071,-1.32669,-10.3642
15.75024,0.31259,-1.53588,-9.97409
15.76027,0.30571,-1.73834,-9.47371
15.77031,0.3729,-1.83171,-9.42777
15.78035,0.42168,-1.70108,-9.67931
15.79038,0.4531,-1.53783,-9.83792
15.80042,0.37828,-1.54022,-9.60045
15.81046,0.38577,-1.69824,-9.3516
15.8205,0.49949,-1.78338,-9.23683
15.83053,0.55141,-1.77336,-9.4565
15.84057,0.58643,-1.73849,-9.6018
15.85061,0.64464,-1.68163,-9.52832
15.86064,0.6397,-1.67145,-9.52653
15.87068,0.58493,-1.66352,-9.66644
15.88072,0.60753,-1.6526,-9.93728
15.89075,0.59541,-1.66666,-10.17446
15.90079,0.62459,-1.69913,-9.99115
15.91083,0.65347,-1.69689,-9.54389
15.92087,0.60364,-1.71889,-9.23638
15.9309,0.59376,-1.8181,-8.92184
15.94094,0.60184,-1.91701,-8.96808
15.95098,0.56294,-1.97581,-9.2298
15.96101,0.59331,-1.99242,-9.60284
15.97105,0.57431,-1.97761,-9.78585
15.98109,0.57925,-1.92569,-9.52413
15.99112,0.55112,-1.89531,-9.03751
16.00116,0.63925,-1.96519,-8.62511
16.0112,0.72844,-2.13563,-8.59249
16.02123,0.68235,-2.15942,-9.11488
16.03127,0.63686,-2.0433,-9.49017
16.04131,0.67187,-1.9387,-9.68889
16.05135,0.71153,-1.9595,-10.05595
16.06138,0.47944,-2.0632,-10.24913
16.07142,0.19647,-2.19698,-10.07749
16.08146,-0.13452,-2.38223,-9.85708
16.09149,-0.29568,-2.51182,-9.44168
16.10153,-0.2062,-2.46872,-9.25524
16.11157,-0.06809,-2.41066,-9.47849
16.1216,0.15009,-2.32552,-9.76685
16.13164,0.30002,-2.18142,-9.67557
16.14168,0.32531,-2.02924,-9.38048
16.15171,0.30152,-1.99168,-9.29324
16.16175,0.23703,-2.07517,-9.5774
16.17179,0.14216,-2.17603,-9.7257
16.18183,0.16236,-2.17319,-9.52713
16.19186,0.19603,-2.14625,-9.45515
16.2019,0.12719,-2.21,-9.59072
16.21194,0.04414,-2.26327,-9.62529
16.22197,0.05357,-2.34497,-9.40607
16.23201,0.16475,-2.36936,-9.25015
16.24205,0.27249,-2.17648,-9.44303
16.25208,0.30272,-1.94768,-9.69308
16.26212,0.28401,-1.86374,-9.57232
16.27216,0.22416,-1.97911,-9.22426
16.2822,0.16774,-2.16795,-9.0031
16.29223,0.19228,-2.25115,-8.94459
16.30227,0.10953,-2.20222,-9.0019
16.31231,-0.0003,-2.14326,-9.02943
16.32234,0.01122,-2.14176,-9.09138
16.33238,-0.03531,-2.13952,-9.28741
16.34242,-0.10355,-2.12695,-9.55676
16.35245,-0.1637,-2.09208,-9.90691
16.36249,-0.14784,-1.93212,-10.10069
16.37253,-0.03756,-1.78233,-10.01794
16.38256,-0.06315,-1.68312,-9.75113
16.3926,-0.23134,-1.66966,-9.31479
16.40264,-0.51625,-1.6707,-9.09452
16.41268,-0.87209,-1.89097,-9.2304
16.42271,-1.2809,-2.30532,-9.36642
16.43275,-1.69255,-2.69797,-9.71642
16.44279,-1.9607,-2.91793,-10.1366
16.45282,-2.01188,-2.95265,-10.38395
16.46286,-1.99676,-2.77473,-10.33502
16.4729,-2.00589,-2.54653,-10.12179
16.48293,-2.10555,-2.2706,-10.0552
16.49297,-2.3125,-1.92988,-10.21785
16.50301,-2.70275,-1.65574,-10.3829
16.51305,-3.13536,-1.66397,-10.32784
16.52308,-3.63934,-1.8796,-10.35956
16.53312,-4.1478,-1.94409,-10.49004
16.54316,-4.59702,-1.8582,-10.66183
16.55319,-5.01286,-1.75435,-10.89212
16.56323,-5.30645,-1.76827,-10.97098
16.57327,-5.4287,-1.8769,-10.86683
16.5833,-5.46716,-2.0225,-10.71929
16.59334,-5.48407,-2.13533,-10.76613
16.60338,-5.44217,-2.11827,-11.07109
16.61341,-5.33757,-2.17723,-11.18421
16.62345,-5.21143,-2.30292,-11.24646
16.63349,-4.95959,-2.35365,-12.03834
16.64353,-4.62141,-2.07488,-13.48639
16.65356,-4.28323,-1.56222,-14.92575
16.6636,-3.8822,-1.27132,-14.9678
16.67364,-3.36325,-1.18049,-14.54223
16.68367,-2.74645,-1.17346,-14.91558
16.69371,-2.2911,-1.12228,-15.87341
16.70375,-1.99602,-1.03025,-16.97444
16.71378,-1.75884,-0.98297,-18.10391
16.72382,-1.59005,-1.03504,-18.89384
16.73386,-1.22029,-1.0313,-18.93155
16.74389,-0.76764,-0.92162,-18.63258
16.75393,-0.18136,-0.82854,-18.39764
16.76397,0.25274,-0.83932,-18.13742
16.77401,0.59915,-0.97923,-17.77395
16.78404,0.94481,-1.20413,-17.46406
16.79408,1.16508,-1.38983,-17.00841
16.80412,1.29451,-1.57808,-16.52029
16.81415,1.42694,-1.7141,-16.07647
16.82419,1.61354,-1.66188,-15.74068
16.83423,1.98479,-1.4639,-15.67963
16.84426,2.51481,-1.20054,-15.82088
16.8543,2.98407,-0.82869,-15.47806
16.86434,3.4873,-0.52657,-14.51365
16.87438,4.14436,-0.28551,-13.68196
16.88441,4.76686,-0.16595,-13.32224
16.89445,5.12419,0.02274,-12.83262
16.90449,5.39578,0.03142,-12.13576
16.91452,5.42915,-0.08679,-10.97487
16.92456,5.30944,-0.49186,-9.6847
16.9346,5.11791,-1.18498,-8.39467
16.94463,5.01855,-1.97192,-7.07606
16.95467,4.85754,-2.61537,-6.22612
16.96471,4.50723,-2.75393,-6.23675
16.97474,4.08421,-2.70949,-6.99197
16.98478,3.60342,-2.78506,-8.39572
16.99482,3.26135,-2.72296,-9.29519
17.00486,2.9296,-2.48324,-9.127
17.01489,2.92272,-2.46438,-8.24204
17.02493,3.24773,-2.63527,-7.43235
17.03497,3.53504,-2.36787,-6.76332
17.045,3.74274,-1.88678,-7.36516
17.05504,3.60357,-1.46316,-7.48143
17.06508,3.33737,-1.31083,-6.78277
17.07511,3.10917,-1.54007,-6.01827
17.08515,2.9314,-2.03402,-5.6569
17.09519,2.91973,-2.6851,-5.83078
17.10522,2.92197,-3.08747,-6.65244
17.11526,2.75707,-2.92212,-7.26476
17.1253,2.51945,-2.56898,-6.93436
17.13534,2.3348,-2.42159,-6.14936
17.14537,2.20581,-2.4756,-5.20455
17.15541,2.19833,-2.82665,-4.14152
17.16545,2.41605,-3.21182,-3.40231
17.17548,2.59142,-3.30385,-3.20524
17.18552,2.69931,-3.2,-3.41443
17.19556,2.80122,-2.9721,-3.97632
17.20559,2.85389,-2.66205,-4.43556
17.21563,2.98138,-2.34168,-4.26901
17.22567,3.10737,-2.15747,-4.0474
17.2357,3.18429,-2.07577,-4.13299
17.24574,3.02163,-2.15912,-4.79618
17.25578,2.73403,-2.45615,-5.64927
17.26582,2.57107,-2.92078,-6.047
17.27585,2.43371,-3.30654,-6.54739
17.28589,1.99617,-3.39887,-7.03835
17.29593,1.5691,-3.39408,-6.80372
17.30596,1.20653,-3.48805,-6.24288
17.316,0.79592,-3.53549,-5.82345
17.32604,0.43515,-3.52217,-5.64657
17.33607,0.16281,-3.50601,-5.55365
17.34611,0.17493,-3.63904,-5.17043
17.35615,0.37873,-3.77191,-5.13302
17.36618,0.69552,-3.66148,-5.81477
17.37622,1.13216,-3.4885,-6.57298
17.38626,1.27955,-3.32255,-6.8329
17.3963,1.06422,-2.98078,-6.64122
17.40633,0.72978,-2.65682,-6.60396
17.41637,0.56683,-2.65711,-6.84158
17.42641,0.04444,-2.98482,-7.12499
17.43644,-0.38936,-3.49972,-6.98867
17.44648,-0.55605,-3.93726,-6.52869
17.45652,-0.75642,-4.26796,-6.00211
17.46655,-0.82271,-4.44558,-5.52612
17.47659,-0.6819,-4.2946,-5.26485
17.48663,-0.31993,-3.87801,-5.30241
17.49667,-0.06,-3.51199,-5.71481
17.5067,-0.07437,-3.54776,-6.18482
17.51674,-0.25468,-3.73466,-6.39626
17.52678,-0.59556,-3.88235,-6.4223
17.53681,-0.97893,-3.99547,-6.23779
17.54685,-1.05465,-4.17339,-5.81746
17.55689,-0.89528,-4.23684,-5.59061
17.56692,-0.63865,-4.11892,-5.33428
17.57696,-0.32037,-3.88983,-5.09441
17.587,-0.28311,-3.68797,-5.25168
17.59703,-0.5149,-3.56586,-5.69191
17.60707,-0.95873,-3.59459,-6.27116
17.61711,-1.1154,-3.70981,-6.73728
17.62715,-1.03415,-3.64607,-6.67533
17.63718,-0.76629,-3.46845,-6.49966
17.64722,-0.60917,-3.23472,-6.72441
17.65726,-0.58658,-3.02881,-6.96324
17.66729,-0.68295,-3.0149,-7.22839
17.67733,-0.95843,-3.18668,-7.38447
17.68737,-1.3403,-3.35562,-7.43953
17.6974,-1.69719,-3.34111,-7.60548
17.70744,-2.07577,-3.15406,-7.91837
17.71748,-2.24397,-2.96312,-8.11305
17.72751,-2.05542,-2.8078,-7.94965
17.73755,-1.5706,-2.6435,-7.40422
17.74759,-1.16463,-2.51376,-6.86687
17.75763,-1.07111,-2.38672,-6.47587
17.76766,-1.18708,-2.19533,-6.50669
17.7777,-1.54546,-2.02624,-7.05362
17.78774,-1.82259,-1.84204,-7.43998
17.79777,-1.97342,-1.67699,-7.55311
17.80781,-1.94379,-1.68851,-7.47335
17.81785,-1.81166,-1.79655,-7.41978
17.82788,-1.64467,-1.80987,-7.47619
17.83792,-1.53199,-1.6728,-7.43085
17.84796,-1.47498,-1.53304,-6.99705
17.85799,-1.30424,-1.45597,-6.69838
17.86803,-1.10941,-1.444,-7.1015
17.87807,-1.0949,-1.30065,-7.8645
17.8881,-1.32803,-1.02412,-8.83026
17.89814,-1.66681,-0.80311,-10.10997
17.90818,-1.91521,-0.69851,-11.48319
17.91822,-1.93332,-0.72754,-12.36605
17.92825,-1.68552,-0.93808,-12.37054
17.93829,-1.3008,-1.18648,-11.70046
17.94833,-1.18797,-1.29407,-10.88554
17.95836,-1.24932,-1.15939,-10.28833
17.9684,-1.36499,-0.97639,-10.40101
17.97844,-1.61683,-0.87373,-11.0262
17.98847,-1.82019,-0.75253,-11.45072
17.99851,-1.92,-0.72918,-11.31784
18.00855,-2.15104,-0.97863,-11.15084
18.01858,-2.29035,-1.31023,-11.06061
18.02862,-2.33734,-1.26234,-11.00405
18.03866,-2.12411,-0.75926,-10.93806
18.0487,-1.56057,-0.15847,-10.90574
18.05873,-0.69716,0.37005,-10.83227
18.06877,0.09771,0.58284,-10.74847
18.07881,0.44742,0.5375,-11.12526
18.08884,0.3509,0.48692,-11.67458
18.09888,0.15547,0.47899,-11.98253
18.10892,-0.00748,0.62923,-12.0584
18.11895,0.06943,0.7829,-11.93674
18.12899,0.32935,0.7621,-11.7048
18.13903,0.60708,0.65586,-11.59108
18.14906,0.64913,0.58,-11.70645
18.1591,0.36721,0.58523,-12.07261
18.16914,0.1447,0.68968,-12.68224
18.17918,0.21174,0.88181,-12.99199
18.18921,0.53765,1.07096,-13.02371
18.19925,0.95888,1.02966,-12.66338
18.20929,1.10118,0.79682,-12.01081
18.21932,0.76674,0.56518,-11.49995
18.22936,0.48842,0.52194,-11.48469
18.2394,0.4751,0.83647,-11.91878
18.24943,0.64778,1.44206,-12.31532
18.25947,1.01933,1.92539,-12.65485
18.26951,1.3415,2.04599,-12.79027
18.27954,1.1766,1.75405,-12.51718
18.28958,0.65706,1.31741,-12.24844
18.29962,0.01706,0.82465,-12.26924
18.30966,-0.62997,0.44128,-12.79641
18.31969,-1.13051,0.54079,-13.83684
18.32973,-1.09639,0.84381,-14.85467
18.33977,-0.45176,1.0536,-14.89762
18.3498,0.38217,0.89124,-13.70471
18.35984,0.78994,0.29134,-12.12678
18.36988,0.70599,-0.56488,-10.74084
18.37991,0.2674,-1.32325,-10.00073
18.38995,-0.27803,-1.77515,-10.27906
18.39999,-0.72694,-1.89366,-11.148
18.41002,-0.8872,-1.61414,-12.1823
18.42006,-0.61292,-1.13021,-13.05498
18.4301,0.06404,-0.66544,-13.14686
18.44014,0.56862,-0.48707,-12.21118
18.45017,0.89049,-0.67307,-10.9195
18.46021,1.04193,-1.06452,-9.83912
18.47025,1.08652,-1.40629,-9.2708
18.48028,1.20713,-1.5881,-9.39395
18.49032,1.27401,-1.65843,-10.07091
18.50036,1.16643,-1.81017,-10.47927
18.51039,1.08412,-2.2097,-10.37258
18.52043,1.08846,-2.62015,-9.95285
18.53047,1.17466,-2.69512,-9.44513
18.5405,1.38594,-2.37056,-9.5572
18.55054,1.66741,-1.90938,-10.29866
18.56058,2.00724,-1.45373,-11.2707
18.57062,2.22496,-0.91234,-12.03939
18.58065,2.28961,-0.46163,-12.46107
18.59069,2.37565,-0.24122,-12.06034
18.60073,2.37505,-0.25633,-11.24916
18.61076,2.34108,-0.38592,-10.53898
18.6208,2.29843,-0.50413,-10.12897
18.63084,2.09642,-0.53959,-9.9497
18.64087,1.7557,-0.60334,-10.07734
18.65091,1.41033,-0.77677,-10.363
18.66095,1.0729,-0.93119,-10.385
18.67099,0.73053,-1.0545,-10.15575
18.68102,0.54244,-1.20458,-9.83044
18.69106,0.56309,-1.35452,-9.54538
18.70109,0.60304,-1.3406,-9.4152
18.71113,0.65287,-1.23795,-9.52279
18.72117,0.59675,-1.17466,-9.61811
18.73121,0.43574,-1.19007,-9.50034
18.74124,0.3723,-1.2785,-9.40697
18.75128,0.40223,-1.31397,-9.29893
18.76132,0.51356,-1.2607,-9.26721
18.77135,0.57775,-1.20069,-9.36851
18.78139,0.60888,-1.0741,-9.46548
18.79143,0.62803,-0.95439,-9.44153
18.80147,0.59945,-0.91982,-9.2301
18.8115,0.54244,-0.95125,-8.97811
18.82154,0.47944,-1.02921,-8.89057
18.83158,0.4329,-1.10388,-9.00115
18.84161,0.34566,-1.1344,-9.30147
18.85165,0.21099,-1.14129,-9.42358
18.86169,0.08544,-1.1757,-9.30761
18.87172,0.05207,-1.25666,-9.23099
18.88176,0.09667,-1.27776,-9.01641
18.8918,0.1052,-1.20473,-8.97377
18.90183,0.02469,-1.10956,-9.13014
18.91187,-0.04115,-1.05928,-9.43914
18.92191,-0.08694,-1.09714,-9.5189
18.93194,-0.08455,-1.15535,-9.42762
18.94198,-0.03172,-1.17735,-9.39051
18.95202,-0.00404,-1.09669,-9.32721
18.96206,0.05492,-1.02906,-9.4342
18.97209,0.08814,-0.97773,-9.60643
18.98213,0.04519,-0.94257,-9.73467
18.99217,-0.07033,-0.98955,-9.84451
19.0022,-0.20949,-1.07949,-9.83493
19.01224,-0.30287,-1.17047,-9.78121
19.02228,-0.27563,-1.23331,-9.77777
19.03231,-0.11462,-1.20548,-9.77478
19.04235,-0.02469,-1.10971,-9.81293
19.05239,-0.06898,-1.07245,-9.87892
19.06242,-0.2291,-1.08263,-9.92127
19.07246,-0.38397,-1.17331,-9.80276
19.0825,-0.50009,-1.29661,-9.77882
19.09254,-0.45176,-1.3638,-9.71941
19.10257,-0.36437,-1.28868,-9.7046
19.11261,-0.19528,-1.14772,-9.74201
19.12265,-0.02544,-0.9297,-9.79707
19.13268,0.0404,-0.66768,-9.90751
19.14272,0.06749,-0.57461,-9.96841
19.15276,-0.02424,-0.64404,-9.85827
19.16279,-0.167,-0.80565,-9.74919
19.17283,-0.21727,-0.97249,-9.73452
19.18287,-0.15637,-1.0102,-9.65956
19.1929,-0.04339,-0.90441,-9.61915
19.20294,0.09741,-0.75058,-9.63726
19.21298,0.21293,-0.57895,-9.7634
19.22302,0.1634,-0.47764,-9.90062
19.23305,-0.03427,-0.51206,-9.93279
19.24309,-0.08829,-0.68085,-9.94162
19.25313,-0.04624,-0.78171,-9.88506
19.26316,0.03502,-0.79817,-9.64669
19.2732,0.09577,-0.7639,-9.42792
19.28324,0.06509,-0.69013,-9.4571
19.29327,0.00195,-0.64195,-9.67886
19.30331,-0.11387,-0.6605,-9.97769
19.31335,-0.1851,-0.73053,-10.03559
19.32338,-0.09697,-0.75402,-9.91095
19.33342,0.0211,-0.71781,-9.75697
19.34346,0.13617,-0.67038,-9.5807
19.3535,0.17762,-0.64389,-9.59746
19.36353,0.06898,-0.6828,-9.74754
19.37357,-0.05671,-0.6813,-9.92292
19.38361,-0.07632,-0.68684,-10.11595
19.39364,-0.02514,-0.67711,-10.0733
19.40368,0.0187,-0.65407,-9.82326
19.41372,-0.01541,-0.7012,-9.62634
19.42375,-0.00314,-0.73532,-9.51755
19.43379,0.01586,-0.70823,-9.60733
19.44383,0.11522,-0.6795,-9.82895
19.45386,0.23987,-0.61381,-9.90885
19.4639,0.27548,-0.51565,-9.83269
19.47394,0.20889,-0.49306,-9.67931
19.48397,0.10175,-0.55426,-9.65567
19.49401,0.07183,-0.64853,-9.69308
19.50405,0.09697,-0.69462,-9.80321
19.51409,0.1426,-0.63207,-9.92082
19.52412,0.25663,-0.44113,-10.02033
19.53416,0.32696,-0.27907,-10.05879
19.5442,0.38098,-0.25334,-9.88252
19.55423,0.34491,-0.36676,-9.63142
19.56427,0.22595,-0.48019,-9.49077
19.57431,0.19348,-0.54827,-9.49391
19.58434,0.22251,-0.49515,-9.65926
19.59438,0.21997,-0.39863,-9.9289
19.60442,0.16266,-0.32426,-10.04996
19.61445,0.09083,-0.31544,-10.02063
19.62449,0.03726,-0.40282,-9.80515
19.63453,0.01287,-0.49216,-9.53132
19.64457,0.08275,-0.49844,-9.49436
19.6546,0.17448,-0.4124,-9.65836
19.66464,0.19094,-0.29763,-9.87429
19.67468,0.17837,-0.23598,-9.92681
19.68471,0.03442,-0.26187,-9.97873
19.69475,-0.13767,-0.36347,-10.04622
19.70479,-0.26172,-0.43515,-10.1586
19.71482,-0.19169,-0.28341,-10.69565
19.72549,-0.19169,-0.28341,-10.69565
19.73552,-0.01751,-0.08709,-10.99911
19.74556,-0.0422,0.12629,-11.09952
19.7556,-0.15547,0.22191,-11.00734
19.76564,-0.41285,0.26471,-10.45129
19.77567,-0.92311,0.27863,-9.68395
19.78571,-1.52496,0.27803,-9.29324
19.79575,-2.08715,0.25887,-9.33769
19.80578,-2.82815,0.20291,-9.77957
19.81582,-3.77551,0.13647,-10.49049
19.82586,-4.93235,-0.07931,-10.85112
19.83589,-6.17495,-0.432,-10.6943
19.84593,-7.46078,-0.92581,-10.86983
19.85597,-8.40933,-1.45747,-11.61592
19.866,-8.89775,-1.83171,-12.06289
19.87604,-8.92588,-2.0852,-11.85369
19.88608,-8.74123,-2.04839,-11.36333
19.89612,-8.44585,-1.78652,-10.82778
19.90615,-7.96506,-1.58017,-10.77525
19.91619,-7.35768,-1.47004,-11.11957
19.92623,-6.88991,-1.34464,-11.97669
19.93626,-6.48245,-1.09206,-13.08775
19.9463,-6.1947,-0.63372,-15.20557
19.95634,-6.1947,-0.14126,-17.26474
19.96637,-5.82928,0.01092,-17.41886
19.97641,-4.87908,-0.31888,-16.47585
19.98645,-3.85616,-0.66394,-15.8342
19.99648,-2.63093,-0.7437,-15.93087
20.00652,-1.33791,-0.43066,-16.71302
20.01656,-0.42332,0.01796,-18.67298
20.02659,0.32636,0.13827,-21.7413
20.03663,1.25277,0.38322,-23.93379
20.04667,2.45226,0.99225,-24.1741
20.05671,3.74693,1.65739,-23.32491
20.06674,5.02947,2.18695,-21.83257
20.07678,6.06706,2.49027,-20.73603
20.08682,6.67459,2.61058,-20.50694
20.09685,7.00903,2.5823,-20.31749
20.10689,7.2688,2.46842,-19.86768
20.11693,7.63167,2.36278,-18.82815
20.12696,8.19161,2.40123,-17.29362
20.137,8.63783,2.51376,-16.22356
20.14704,8.74467,2.61686,-15.96962
20.15707,8.41203,2.39016,-16.041
20.16711,7.75078,1.86,-15.99581
20.17715,7.13308,1.28015,-15.44185
20.18719,6.86896,0.79847,-14.10424
20.19722,6.91715,0.65856,-12.66428
20.20726,7.19877,1.18857,-12.00004
20.2173,7.57765,2.06096,-11.82212
20.22733,7.9908,2.65891,-11.18436
20.23737,8.37522,2.86646,-10.34834
20.24741,8.40859,2.76141,-9.2916
20.25744,8.04033,2.45256,-8.15256
20.26748,7.47365,1.94679,-7.24785
20.27752,6.75808,1.37682,-6.78831
20.28755,6.07633,1.04537,-6.51462
20.29759,5.4709,1.00227,-6.29121
20.30763,5.06104,1.08098,-5.88181
20.31766,4.84601,0.99808,-5.29478
20.3277,4.35535,0.69851,-4.43316
20.33774,3.53474,0.34058,-3.28245
20.34778,2.60579,-0.00254,-1.89486
20.35781,1.93945,-0.63087,-0.72993
20.36785,1.47498,-1.32609,0.18944
20.37789,1.29781,-1.86329,0.79981
20.38792,1.42201,-1.94559,0.6415
20.39859,0.85413,-2.01592,1.04372
20.40862,0.8275,-2.21942,1.0114
20.41866,0.72185,-2.33599,0.49844
20.4287,0.16819,-2.28302,0.25184
20.43873,-0.46462,-2.31699,-0.24391
20.44877,-1.157,-2.50823,-0.62444
20.45881,-1.39372,-2.89354,-0.97654
20.46885,-1.21057,-3.18085,-1.09131
20.47888,-0.92087,-3.30983,-1.55803
20.48892,-0.53151,-3.32764,-2.5395
20.49896,-0.55845,-3.01265,-3.40306
20.50899,-0.95289,-2.4171,-4.32453
20.51903,-1.28299,-1.92329,-5.47659
20.52907,-1.30499,-1.6089,-6.00196
20.5391,-1.03834,-1.37442,-5.45998
20.54914,-0.9276,-1.20009,-4.65328
20.55918,-0.94691,-0.88481,-4.03468
20.56921,-1.08442,-0.50503,-3.54177
20.57925,-1.31083,-0.25483,-3.39902
20.58929,-1.60711,-0.249,-3.67435
20.59932,-1.82289,-0.44996,-4.51681
20.60936,-2.03597,-0.67382,-5.4914
20.6194,-2.29634,-0.64494,-5.62832
20.62944,-2.58963,-0.3717,-5.11327
20.63947,-2.90177,-0.22625,-4.35745
20.64951,-3.23487,-0.18196,-3.83132
20.65955,-3.20419,-0.17582,-3.93263
20.66958,-2.90506,-0.28192,-3.89851
20.67962,-2.72146,-0.27593,-3.51349
20.68966,-2.93514,-0.14335,-3.89911
20.69969,-3.62138,-0.15188,-4.69039
20.70973,-4.51367,-0.33743,-5.64388
20.71977,-5.23088,-0.91114,-6.86029
20.7298,-5.73292,-1.60052,-7.92316
20.73984,-6.15445,-2.00335,-8.68407
20.74988,-6.73085,-2.06515,-8.91556
20.75992,-7.103,-1.67938,-8.51513
20.76995,-6.76556,-1.31666,-8.75934
20.77999,-5.7588,-1.12677,-9.01178
20.79003,-5.15921,-0.44353,-8.48475
20.80006,-5.72903,0.57715,-8.31895
20.8101,-6.39506,0.92102,-8.88563
20.82014,-6.72247,0.25199,-10.23641
20.83017,-6.87241,-0.71123,-12.66413
20.84021,-7.10659,-1.08517,-15.21695
20.85025,-7.35304,-0.40986,-16.60888
20.86028,-7.16225,1.07649,-16.45984
20.87032,-6.27685,2.3538,-15.47911
20.88036,-4.64266,2.61776,-15.18702
20.89039,-3.08433,2.25624,-16.3108
20.90043,-2.43131,1.72682,-18.00455
20.91047,-2.13353,1.36963,-21.08379
20.92051,-1.4039,0.72065,-23.39599
20.93054,-0.6795,0.18675,-22.93496
20.94058,-0.33459,0.20919,-19.92544
20.95062,0.96292,0.30511,-17.734
20.96065,3.51783,0.49201,-18.08834
20.97069,6.41107,1.45283,-19.44241
20.98073,8.43866,3.13386,-20.84392
20.99076,11.82377,3.65864,-21.1417
21.0008,16.81149,3.35502,-19.58981
21.01084,20.82237,4.54479,-17.53992
21.02087,22.17435,6.49083,-17.8597
21.03091,20.80711,7.6176,-20.45636
21.04095,17.54187,7.39225,-21.87238
21.05099,15.57623,4.60031,-20.07089
21.06102,14.75681,1.45418,-15.0697
21.07106,13.57378,0.30481,-10.65674
21.0811,11.75643,0.40447,-8.9826
21.09113,9.65806,0.29149,-8.93591
21.10117,7.68943,-0.55815,-9.54104
21.11121,5.48736,-1.22673,-9.79258
21.12124,3.22693,-1.46525,-9.91499
21.13128,1.80822,-1.73071,-9.96242
21.14132,1.18977,-1.82468,-9.46009
21.15135,0.74699,-1.57883,-8.82323
21.16139,0.5779,-1.32354,-8.64022
21.17143,0.44592,-1.17959,-8.4035
21.18146,0.1845,-0.96576,-7.29768
21.1915,0.23807,-0.77303,-5.74354
21.20154,0.68833,-0.63087,-4.98982
21.21158,0.81014,-0.34222,-5.68713
21.22161,0.47749,0.29942,-7.23423
21.23165,0.29404,0.85563,-9.10141
21.24169,0.40133,1.04776,-10.40505
21.25172,0.59526,1.01739,-10.72348
21.26176,0.69866,0.85892,-10.39682
21.2718,0.90172,0.69507,-9.97125
21.28183,0.89229,0.72694,-10.10323
21.29187,0.49051,0.84381,-10.41657
21.30191,0.13632,0.60678,-10.58252
21.31194,0.07632,-0.07572,-10.59165
21.32198,0.18435,-0.64299,-10.50127
21.33202,0.13722,-0.79622,-10.36674
21.34205,0.01766,-0.74744,-10.18044
21.35209,-0.10175,-0.68414,-9.88416
21.36213,-0.26321,-0.66394,-9.53311
21.37217,-0.49695,-0.82585,-9.27244
21.3822,-0.64673,-1.19306,-9.3314
21.39224,-0.51341,-1.49862,-9.87818
21.40228,-0.03068,-1.33956,-10.37647
21.41231,0.39714,-0.82809,-10.25975
21.42235,0.38532,-0.36931,-9.79782
21.43239,0.29613,-0.2876,-9.4354
21.44242,0.13527,-0.53585,-9.47805
21.45246,-0.07272,-0.95648,-9.73108
21.4625,-0.02559,-1.24184,-9.86635
21.47253,0.25827,-1.07919,-9.92292
21.48257,0.63237,-0.66529,-9.89808
21.49261,0.97145,-0.32441,-10.00058
21.50265,1.29661,-0.08529,-10.19137
21.51268,1.45493,0.06883,-10.36225
21.52272,1.31591,0.08888,-10.28115
21.53276,1.19545,-0.1456,-10.00522
21.54279,1.07799,-0.53136,-10.02796
21.55283,1.06318,-0.71302,-10.04188
21.56287,1.053,-0.55126,-10.04861
21.5729,1.14548,-0.28252,-10.35268
21.58294,1.35377,-0.0404,-10.60467
21.59298,1.39567,0.13871,-10.47089
21.60301,1.1751,0.08455,-9.81234
21.61305,0.95379,-0.14829,-9.00399
21.62309,0.83348,-0.32801,-8.65504
21.63313,0.72694,-0.37454,-8.8551
21.64316,0.59406,-0.29464,-9.46757
21.6532,0.40821,-0.19169,-10.03545
21.66324,0.17732,-0.21308,-10.03515
21.67327,0.12255,-0.35494,-9.65836
21.68331,0.20979,-0.46896,-9.40248
21.69335,0.48168,-0.41435,-9.41011
21.70338,0.70375,-0.23987,-9.60284
21.71342,0.55815,-0.02963,-9.92816
21.72346,0.30182,-0.05866,-10.1574
21.73349,0.04609,-0.34207,-10.11475
21.74353,-0.02948,-0.58643,-10.05954
21.75357,0.17253,-0.62474,-9.69352
21.7636,0.46956,-0.49321,-9.23234
21.77364,0.67891,-0.3117,-8.96015
21.78368,0.78021,-0.19737,-8.88862
21.79372,0.79443,-0.2074,-9.22366
21.80375,0.59137,-0.2665,-9.63831
21.81379,0.3491,-0.37245,-9.87668
21.82383,0.33235,-0.54303,-9.96123
21.83386,0.44173,-0.5996,-9.84825
21.8439,0.56054,-0.56937,-9.57097
21.85394,0.52029,-0.45804,-9.36657
21.86397,0.46612,-0.47585,-9.27574
21.87401,0.34117,-0.62713,-9.61287
21.88405,0.13886,-0.79787,-10.10039
21.89408,-0.01182,-0.97683,-10.19152
21.90412,-0.00614,-1.14024,-9.59835
21.91416,0.14784,-1.22344,-8.93905
21.9242,0.52029,-1.17825,-8.74078
21.93423,0.81702,-0.85593,-9.30776
21.94427,0.89887,-0.27054,-10.28235
21.95431,0.90231,0.15817,-10.8821
21.96434,0.87134,0.29299,-11.00495
21.97438,0.86999,0.21473,-10.67859
21.98442,0.96845,0.06015,-10.12014
21.99445,1.09909,0.05791,-9.57576
22.00449,1.02621,0.21922,-9.39485
22.01453,0.87897,0.34671,-9.68933
22.02456,0.61202,0.31933,-10.20558
22.0346,0.28985,0.14111,-10.52865
22.04464,0.26396,-0.08739,-10.16144
22.05468,0.39893,-0.104,-9.49944
22.06471,0.57416,0.00584,-9.07552
22.07475,0.70809,0.14081,-9.23623
22.08479,0.70883,0.19857,-9.81877
22.09482,0.60828,0.19109,-10.23611
22.10486,0.41629,0.05896,-10.2819
22.1149,0.15487,-0.15039,-9.91274
22.12493,0.05776,-0.39863,-9.43226
22.13497,0.09203,-0.48333,-9.16979
22.14501,0.22311,-0.38621,-9.1475
22.15504,0.38173,-0.29149,-9.47939
22.16508,0.39609,-0.21668,-9.83598
22.17512,0.2258,-0.23089,-10.00642
22.18515,-0.01302,-0.41659,-9.95868
22.19519,-0.15218,-0.7012,-9.47131
22.20523,-0.18794,-0.96052,-8.84957
22.21527,-0.13707,-1.0337,-8.3209
22.2253,-0.07781,-0.91518,-8.1768
22.23534,-0.03846,-0.80595,-8.70756
22.24538,-0.04624,-0.75268,-9.57127
22.25541,-0.17014,-0.77812,-10.16802
22.26545,-0.14605,-0.90725,-10.28744
22.27549,0.14081,-0.86206,-10.23267
22.28552,0.79278,-0.51146,-10.29163
22.29556,1.41378,0.07512,-10.70582
22.3056,1.76153,0.64269,-11.10102
22.31563,1.67953,0.76255,-10.96903
22.32567,1.44655,0.44622,-10.3226
22.33571,1.23002,-0.02858,-9.66569
22.34575,0.74609,-0.24989,-9.1659
22.35578,0.44323,-0.17986,-9.57501
22.36582,0.56862,0.07931,-10.35881
22.37586,0.77812,0.39609,-10.55738
22.38589,0.77797,0.63072,-10.12224
22.39593,0.49485,0.63731,-9.49047
22.40597,0.00479,0.46792,-9.1032
22.416,-0.51685,0.24137,-9.08689
22.42604,-1.07724,0.02649,-9.10066
22.43608,-1.70183,-0.13093,-8.98828
22.44611,-2.47501,-0.1869,-8.78582
22.45615,-3.47294,-0.27803,-8.63514
22.46619,-4.55497,-0.52343,-8.62481
22.47622,-5.73666,-1.04761,-8.84209
22.48626,-6.96024,-1.66891,-9.21483
22.4963,-7.97883,-2.08505,-9.32242
22.50634,-8.77864,-2.2926,-9.26646
22.51637,-9.21678,-2.26327,-9.23264
22.52641,-9.10186,-1.86942,-9.35699
22.53645,-8.93755,-1.25456,-9.86621
22.54648,-9.01177,-0.71811,-11.05672
22.55652,-8.66252,-0.4341,-11.9939
22.56656,-7.57196,-0.23403,-12.21477
22.57659,-5.94001,0.10789,-12.35034
22.58663,-4.27604,0.68639,-12.84953
22.59667,-3.12039,1.06093,-14.3293
22.6067,-2.88471,0.92611,-16.186
22.61674,-3.09525,0.14231,-17.47109
22.62678,-3.31253,-0.96232,-17.6318
22.63682,-3.2015,-1.97477,-17.41617
22.64685,-2.91105,-2.76246,-18.03911
22.65689,-2.82755,-3.21661,-19.59624
22.66693,-2.88771,-3.32195,-21.45953
22.67696,-2.81483,-3.27856,-22.88842
22.687,-2.40857,-3.17097,-23.68105
22.69704,-1.83545,-2.61177,-24.16303
22.70707,-0.90426,-1.61324,-24.76323
22.71711,0.28611,-0.65885,-25.02704
22.72715,1.17929,0.1022,-24.47458
22.73718,2.04151,0.59646,-23.30366
22.74722,3.1789,0.96546,-21.91712
22.75726,4.44962,1.60172,-20.3368
22.7673,5.8236,2.44014,-19.14179
22.77733,7.16674,3.27647,-18.44463
22.78737,8.1747,3.95238,-17.79999
22.79741,8.89521,4.38693,-16.87777
22.80744,9.60554,4.62784,-15.35252
22.81748,10.42869,4.6437,-14.17577
22.82752,11.11314,4.73438,-13.27914
22.83755,11.40867,4.75967,-12.96999
22.84759,11.09892,4.8734,-12.80554
22.85763,10.0329,4.98383,-12.73132
22.86766,9.27214,4.40653,-12.18948
22.8777,9.03841,3.72702,-10.49468
22.88774,9.20062,3.37582,-8.57962
22.89777,9.40742,3.37164,-7.06888
22.90781,9.51605,3.29023,-6.2553
22.91785,9.43465,2.99919,-5.75282
22.92789,9.01686,2.75977,-5.31528
22.93792,8.48804,2.76096,-4.50245
22.94796,8.39826,3.33318,-3.78882
22.958,7.73058,2.91584,-3.42386
22.96803,7.13981,2.39794,-3.66433
22.97807,5.90365,2.24067,-4.05817
22.98811,5.04264,1.9414,-4.30567
22.99814,4.28487,1.52675,-4.20961
23.00818,3.74333,1.03519,-3.8611
23.01822,3.35817,0.74714,-3.39273
23.02825,3.20015,0.55546,-2.95579
23.03829,3.11531,0.42482,-2.58589
23.04833,3.14089,0.4748,-2.21449
23.05836,3.14538,0.62728,-1.95053
23.0684,2.95953,0.71901,-1.57494
23.07844,2.52843,0.73562,-1.27686
23.08848,1.91207,0.62997,-1.26982
23.09851,1.21985,0.38562,-1.46061
23.10855,0.41988,0.03576,-1.71395
23.11859,-0.15039,-0.44023,-1.92539
23.12862,-0.62459,-0.93883,-2.18067
23.13866,-1.27327,-1.26638,-2.67387
23.1487,-1.73819,-1.41722,-3.17591
23.15873,-2.05737,-1.62372,-3.47728
23.16877,-1.87586,-2.03821,-3.76698
23.17881,-1.61983,-2.21733,-3.70563
23.18884,-1.49638,-1.81615,-3.27078
23.19888,-1.44445,-1.27656,-2.93559
23.20892,-1.43622,-1.05839,-3.00113
23.21895,-1.56311,-1.20608,-3.68587
23.22899,-1.70018,-1.61624,-4.50319
23.23903,-2.05033,-2.03253,-4.92951
23.24907,-2.73418,-2.29589,-4.80082
23.2591,-3.41503,-2.51301,-4.46893
23.26914,-3.64113,-2.79149,-4.46145
23.27918,-3.54447,-2.89968,-4.8303
23.28921,-3.34246,-2.78131,-4.8704
23.29925,-2.932,-2.44029,-4.16741
23.30929,-2.65891,-1.79341,-3.56078
23.31932,-2.86287,-1.05345,-3.66522
23.32936,-3.55554,-0.48108,-4.69443
23.3394,-4.77,-0.37783,-6.63568
23.34944,-6.34882,-0.23164,-9.20062
23.35947,-7.16345,-0.11941,-11.59467
23.36951,-6.93989,0.186,-12.19098
23.37955,-5.8646,1.35856,-10.74114
23.38958,-4.83434,2.68989,-8.43911
23.39962,-4.3558,3.1174,-6.43636
23.40966,-5.07601,1.94439,-5.35718
23.41969,-6.82841,-0.34147,-6.99646
23.42973,-8.92274,-2.34737,-10.75161
23.43977,-9.78091,-3.37762,-14.08614
23.4498,-8.93725,-2.56718,-15.04875
23.45984,-7.09971,0.20919,-13.84567
23.46988,-5.34251,3.14015,-12.1193
23.47991,-3.78688,4.89674,-12.13696
23.48995,-2.2106,5.01256,-14.17727
23.49999,-1.12333,4.01373,-16.97953
23.51002,-0.12719,2.87723,-20.01149
23.52006,0.89244,2.29679,-23.35424
23.5301,1.68716,2.49206,-24.82697
23.54014,2.51182,2.77967,-23.54084
23.55017,3.44585,2.38283,-20.94852
23.56021,4.45531,1.78308,-18.33839
23.57025,5.9671,1.0533,-17.58631
23.58028,8.24713,0.37335,-19.40441
23.59032,10.22653,0.64344,-23.01576
23.60036,11.85115,1.80613,-25.53685
23.61039,13.79015,3.17262,-24.81395
23.62043,16.33818,4.20227,-21.09516
23.63047,18.77563,5.09262,-16.53555
23.6405,19.68258,5.95258,-13.09793
23.65054,18.8491,5.75327,-11.60305
23.66058,16.48498,4.61946,-11.61263
23.67062,13.29904,2.08924,-12.12588
23.68065,10.57728,-0.4763,-12.29063
23.69069,8.47981,-2.04944,-12.56223
23.70073,6.9363,-2.51212,-11.42154
23.71076,4.9539,-1.28434,-9.31704
23.72143,4.9539,-1.28434,-9.31704
23.73146,4.30133,-0.94721,-9.29115
23.7415,3.39797,-0.99045,-9.58085
23.75154,2.62659,-1.2405,-10.01255
23.76157,2.48324,-1.3412,-10.19002
23.77161,2.60624,-0.96112,-9.91678
23.78165,2.73343,-0.31993,-9.29549
23.79169,2.68465,0.16131,-8.34484
23.80172,2.51631,0.25992,-7.74719
23.81176,2.35021,0.19019,-7.96686
23.8218,2.28407,0.12136,-8.86363
23.83183,2.17408,0.13273,-10.03784
23.84187,2.087,0.19917,-10.71944
23.85191,1.96339,0.33653,-10.50471
23.86194,1.98015,0.33713,-9.84391
23.87198,1.9203,0.25693,-9.41789
23.88202,1.52765,0.14006,-9.6012
23.89206,1.09864,-0.1049,-10.25751
23.90209,0.88047,-0.40716,-10.36989
23.91213,0.89019,-0.6391,-10.00911
23.92217,0.99539,-0.62563,-9.75024
23.9322,0.95633,-0.49755,-9.93579
23.94224,0.82316,-0.52044,-10.04876
23.95228,0.50159,-0.60723,-9.97903
23.96231,0.34207,-0.70779,-9.87354
23.97235,0.56653,-0.91788,-9.53566
23.98239,0.71302,-0.89648,-9.12774
23.99242,0.61351,-0.71153,-8.84613
24.00246,0.56997,-0.69716,-8.84702
24.0125,0.59286,-0.77976,-9.04275
24.02254,0.64195,-0.79113,-9.33365
24.03257,0.77527,-0.70434,-9.46682
24.04261,0.7633,-0.54708,-9.35355
24.05265,0.27384,-0.53466,-9.34008
24.06268,-0.03711,-0.82929,-9.7049
24.07272,0.1661,-1.0135,-9.8493
24.08276,0.53331,-0.88137,-9.7429
24.09279,0.79203,-0.52583,-9.63861
24.10283,0.83228,-0.22341,-9.65806
24.11287,0.63446,0.0208,-9.85842
24.1229,0.4947,-0.15054,-10.02677
24.13294,0.56009,-0.48183,-9.89419
24.14298,0.70719,-0.55261,-9.65133
24.15301,0.84007,-0.34237,-9.57142
24.16305,0.76809,-0.13033,-9.60269
24.17309,0.45071,-0.10579,-9.57875
24.18313,0.27309,-0.28177,-9.71627
24.19316,0.38726,-0.48842,-9.79243
24.2032,0.56533,-0.44996,-9.48598
24.21324,0.65856,-0.27159,-9.39156
24.22327,0.66005,-0.1637,-9.42672
24.23331,0.48138,-0.20485,-9.4565
24.24335,0.0826,-0.45909,-9.54942
24.25338,-0.2276,-0.826,-9.59805
24.26342,-0.19827,-0.95364,-9.5596
24.27346,0.0811,-0.84994,-9.44318
24.28349,0.35374,-0.61785,-9.37689
24.29353,0.4944,-0.41599,-9.36387
24.30357,0.35883,-0.38158,-9.23907
24.31361,-0.05252,-0.57476,-9.06145
24.32364,-0.2457,-0.83318,-9.332
24.33368,0.03247,-0.89289,-9.83209
24.34372,0.44712,-0.63491,-10.07211
24.35375,0.81747,-0.3093,-10.06448
24.36379,0.98387,-0.22296,-10.03784
24.37383,1.04447,-0.27982,-9.91993
24.38386,0.98147,-0.28671,-9.90945
24.3939,0.74475,-0.32187,-9.85409
24.40457,0.74475,-0.32187,-9.85409
24.4146,0.66409,-0.31738,-9.96377
24.42464,0.68893,-0.435,-10.14648
24.43468,0.75492,-0.51236,-10.08303
24.44471,0.83872,-0.49201,-10.04008
24.45475,0.84485,-0.36706,-10.09994
24.46479,0.81792,-0.24271,-10.1176
24.47482,0.81089,-0.18271,-9.97604
24.48486,0.82914,-0.23568,-9.80111
24.4949,0.89019,-0.29494,-9.74305
24.50493,0.93987,-0.24092,-9.77882
24.51497,0.90291,-0.18495,-9.83987
24.52501,0.5577,-0.23792,-9.8677
24.53504,0.12989,-0.46343,-9.91484
24.54508,0.1652,-0.59661,-10.25182
24.55512,0.50114,-0.48498,-10.42031
24.56516,0.74714,-0.15024,-10.31063
24.57519,0.79607,0.11836,-10.16488
24.58523,0.6587,0.13797,-9.87548
24.59527,0.40267,-0.07048,-9.7016
24.6053,0.27593,-0.35015,-9.71058
24.61534,0.33743,-0.45086,-9.71612
24.62538,0.42841,-0.39145,-9.63442
24.63541,0.53376,-0.23044,-9.49481
24.64545,0.52837,-0.14605,-9.68664
24.65549,0.46313,-0.17478,-9.98666
24.66552,0.4112,-0.16146,-10.02422
24.67556,0.34297,-0.17882,-9.78645
24.6856,0.29269,-0.27189,-9.52383
24.69564,0.22505,-0.35524,-9.43226
24.70567,0.22431,-0.39684,-9.51007
24.71571,0.34851,-0.35898,-9.69846
24.72575,0.52373,-0.19438,-9.89733
24.73578,0.65287,0.00195,-10.13226
24.74582,0.75732,0.05207,-10.03395
24.75586,0.75298,-0.06838,-9.81832
24.76589,0.64479,-0.19887,-9.57202
24.77593,0.53959,-0.28042,-9.54673
24.78597,0.51386,-0.32771,-9.71028
24.796,0.53301,-0.28057,-9.89928
24.80604,0.53376,-0.24436,-9.95838
24.81608,0.58194,-0.2466,-9.83403
24.82612,0.64853,-0.25289,-9.58384
24.83615,0.7223,-0.22251,-9.44617
24.84619,0.74654,-0.25423,-9.3522
24.85623,0.67546,-0.28027,-9.39679
24.86626,0.65332,-0.29658,-9.46787
24.8763,0.63566,-0.28132,-9.52638
24.88634,0.60648,-0.22236,-9.64369
24.89637,0.63162,-0.17268,-9.81099
24.90641,0.6807,-0.16744,-9.84077
24.91645,0.70584,-0.14485,-9.61676
24.92648,0.71676,-0.17508,-9.42118
24.93652,0.7838,-0.13288,-9.48209
24.94656,0.81627,-0.06853,-9.58414
24.9566,0.77198,-0.01047,-9.62948
24.96663,0.64599,0.02753,-9.74201
24.97667,0.45669,-0.09397,-9.84047
24.98671,0.3313,-0.29389,-9.98427
24.99674,0.37634,-0.28476,-9.95494
25.00678,0.47046,-0.10564,-9.78331
25.01682,0.56877,0.00628,-9.60554
25.02685,0.65257,0.03756,-9.59806
25.03689,0.62923,-0.00703,-9.63277
25.04693,0.45879,-0.03995,-9.75532
25.05696,0.25139,-0.07467,-9.87069
25.067,0.15906,-0.13602,-9.79064
25.07704,0.12121,-0.1441,-9.56558
25.08708,0.12914,-0.13183,-9.49017
25.09711,0.05058,0.01257,-9.59267
25.10715,-0.12225,0.21712,-9.6006
25.11719,-0.24735,0.28611,-9.61077
25.12722,-0.44442,0.27369,-9.50184
25.13726,-0.75372,0.12824,-9.36597
25.1473,-1.14578,-0.08155,-9.18102
25.15733,-1.52481,-0.28895,-9.12116
25.16737,-1.78832,-0.37798,-9.15064
25.17741,-1.97148,-0.32037,-9.05038
25.18744,-2.18187,-0.02334,-9.15543
25.19748,-2.54399,0.34207,-9.61915
25.20752,-3.12294,0.47914,-10.28399
25.21755,-3.78583,0.3907,-10.55304
25.22759,-4.16636,0.26246,-10.43228
25.23763,-4.46833,0.17792,-10.0733
25.24767,-4.67079,0.21099,-9.69173
25.2577,-4.74636,0.39714,-9.65222
25.26774,-4.84601,0.71542,-10.11011
25.27778,-4.96393,1.0129,-10.87806
25.28781,-5.0799,1.12318,-11.46897
25.29785,-5.19377,1.0545,-11.70989
25.30789,-5.37693,0.93464,-11.8908
25.31792,-5.77511,0.91683,-12.26699
25.32796,-6.22717,0.92356,-12.83053
25.338,-6.63867,0.72589,-13.62316
25.34803,-6.87525,0.04534,-14.49195
25.35807,-6.78756,-1.00407,-15.18852
25.36811,-6.45207,-1.81466,-15.90752
25.37815,-5.77511,-2.05871,-17.26085
25.38818,-4.77733,-1.652,-19.01475
25.39822,-3.89357,-0.80924,-20.71942
25.40826,-2.81977,-0.44876,-21.7603
25.41829,-1.6719,-0.60349,-21.72514
25.42833,-0.57072,-0.94541,-21.20484
25.43837,0.31499,-1.08742,-21.17761
25.4484,1.29182,-1.08831,-22.17315
25.45844,1.96489,-0.75477,-23.38626
25.46848,2.34542,-0.3084,-24.44615
25.47851,3.1587,-0.09517,-25.03946
25.48855,4.41611,0.21802,-24.57154
25.49859,5.83482,0.95184,-23.16061
25.50863,7.45465,1.90982,-21.35134
25.51866,8.78073,2.84895,-19.51065
25.5287,9.46742,3.52816,-17.98943
25.53874,9.65926,3.85257,-16.95409
25.54877,9.68679,4.01208,-15.9186
25.55881,9.47012,4.11369,-15.21306
25.56885,9.15214,4.26527,-14.82475
25.57888,9.02599,4.67124,-13.40903
25.58892,8.88129,4.8927,-11.31081
25.59896,8.692,4.74097,-9.78555
25.60899,8.37492,4.6033,-8.78627
25.61903,7.98406,4.51846,-7.61386
25.62907,7.69841,4.22128,-6.16701
25.63911,7.6369,3.6968,-4.77449
25.64914,7.56673,3.10483,-3.82025
25.65918,7.35304,2.48847,-3.27362
25.66922,7.01067,1.75944,-3.40949
25.67925,6.57687,1.06961,-3.50406
25.68929,6.13035,0.47271,-3.12189
25.69933,5.79187,-0.06644,-2.42129
25.70936,5.67127,-0.5969,-1.86149
25.7194,5.46222,-0.91159,-1.53199
25.72944,5.16474,-0.96561,-1.52855
25.73947,4.84616,-0.92192,-1.76827
25.74951,4.52025,-1.05944,-2.21628
25.75955,4.26482,-1.5703,-2.49266
25.76959,3.9425,-2.12351,-2.15134
25.77962,3.77775,-2.55835,-1.68582
25.78966,3.72972,-2.73657,-1.6499
25.7997,3.67166,-2.80331,-2.25938
25.80973,3.39887,-2.87439,-2.951
25.81977,3.11396,-3.04617,-3.50167
25.82981,2.82531,-3.23172,-3.63604
25.83984,2.47785,-3.32794,-3.49898
25.84988,2.17364,-3.45872,-2.96552
25.85992,2.03732,-3.43164,-2.18366
25.86996,2.15867,-3.29682,-1.8175
25.87999,2.33405,-3.23292,-1.69106
25.89003,2.26162,-3.17381,-1.98749
25.90007,1.90159,-3.11201,-2.80301
25.9101,1.36888,-3.06353,-3.74408
25.92014,0.69686,-2.98931,-4.28083
25.93018,0.15368,-2.9299,-4.17998
25.94021,-0.44622,-2.84626,-3.84269
25.95025,-1.39328,-2.809,-3.6953
25.96029,-2.34751,-2.79418,-4.09992
25.97032,-2.96163,-2.95878,-4.49676
25.98036,-2.69797,-3.43239,-4.28981
25.9904,-2.08131,-3.43972,-3.20973
26.00044,-1.67819,-2.85688,-2.04031
26.01047,-1.57344,-2.06156,-0.77931
26.02051,-1.94574,-1.41422,0.52403
26.03055,-2.86855,-1.12034,1.17735
26.04058,-3.75216,-1.34659,0.56817
26.05062,-3.8807,-1.86957,-1.20264
26.06066,-3.37014,-1.79251,-3.4478
26.07069,-2.82306,-0.81612,-5.13661
26.08073,-2.45615,0.4344,-5.45339
26.09077,-2.36353,1.51852,-4.51112
26.1008,-2.60788,2.11767,-3.2642
26.11084,-2.7885,1.9827,-2.86885
26.12088,-2.88965,1.14712,-3.36071
26.13092,-3.24998,0.2891,-3.83431
26.14095,-3.63874,-0.30002,-4.11967
26.15099,-4.03139,-0.71198,-4.18432
26.16103,-4.59896,-0.90471,-3.79601
26.17106,-5.55021,-0.86909,-3.52187
26.1811,-6.48365,-0.71422,-3.95866
26.19114,-6.59902,-0.89064,-5.23193
26.20117,-6.59139,-1.03564,-7.07172
26.21121,-6.67039,-0.60154,-9.42373
26.22125,-6.11569,0.50937,-11.19648
26.23128,-5.1417,2.28721,-12.3855
26.24132,-4.16367,3.85945,-13.41905
26.25136,-3.42416,4.61393,-13.96897
26.2614,-2.77907,4.49586,-15.38649
26.27143,-2.58424,3.98889,-17.58541
26.28147,-2.85134,3.41338,-20.40548
26.29151,-3.48297,3.17995,-23.29409
26.30154,-3.84165,3.37657,-24.72702
26.31158,-3.55838,3.69111,-24.64801
26.32162,-3.19237,4.00071,-24.1159
26.33165,-2.42458,3.70383,-23.67192
26.34169,-1.40016,2.92542,-25.11054
26.35173,-1.63614,2.39884,-27.35151
26.36176,-1.68657,2.04076,-27.334
26.3718,-0.72215,1.734,-25.86112
26.38184,0.87269,1.93751,-24.10243
26.39188,2.62629,2.11348,-22.66097
26.40191,3.58861,1.84967,-21.8414
26.41195,3.35712,1.59199,-21.35598
26.42199,3.10004,1.14443,-19.73406
26.43202,3.27392,0.36586,-17.30783
26.44206,3.82309,-0.476,-14.50108
26.4521,4.33171,-0.84171,-12.75855
26.46213,4.87444,-0.6385,-12.66847
26.47217,5.55515,-0.26381,-13.34543
26.48221,6.00885,0.14096,-13.16901
26.49225,6.12646,0.48363,-12.02233
26.50228,5.92176,0.63731,-10.96903
26.51232,5.64822,0.47764,-10.19047
26.52236,5.25901,0.2062,-9.91214
26.53239,4.63278,-0.07766,-9.79139
26.54243,3.92185,-0.41165,-9.4363
26.55247,3.37597,-0.69043,-9.00579
26.5625,2.80047,-0.82869,-8.62766
26.57254,2.10211,-0.8682,-8.36145
26.58258,1.56715,-0.94376,-8.23979
26.59261,1.22987,-1.02502,-8.31072
26.60265,1.01409,-0.90875,-8.65414
26.61269,0.95199,-0.56892,-8.88084
26.62273,0.90725,-0.14036,-8.80617
26.63276,0.74699,0.09577,-8.53982
26.6428,0.44532,0.15039,-8.52396
26.65284,0.01077,0.1242,-8.65653
26.66287,-0.34237,0.05462,-9.28741
26.67291,-0.44143,0.0009,-9.88237
26.68295,-0.45954,0.18136,-10.16458
26.69298,-0.39609,0.49081,-10.26379
26.70302,-0.18944,0.72769,-10.09321
26.71306,-0.12195,0.86266,-9.89703
26.72309,0.01841,0.83064,-10.01584
26.73313,0.11836,0.71706,-9.88296
26.74317,-0.03247,0.66409,-9.73318
26.75321,-0.12495,0.53855,-9.73048
26.76324,0.04758,0.31738,-9.6009
26.77328,0.24376,0.23897,-9.5364
26.78332,0.40522,0.23329,-9.49885
26.79335,0.28596,0.20411,-9.46967
26.80339,-0.02035,0.02334,-9.34562
26.81343,0.00599,-0.34611,-9.04275
26.82346,0.11193,-0.55156,-9.07717
26.8335,0.19378,-0.49126,-9.40712
26.84354,0.22431,-0.31648,-9.59596
26.85358,-0.00898,-0.19483,-9.6407
26.86361,-0.16595,-0.28371,-9.63202
26.87365,0.05866,-0.38352,-9.85274
26.88369,0.29823,-0.29598,-9.94073
26.89372,0.38128,-0.14335,-9.74201
26.90376,0.3931,-0.16939,-9.62439
26.9138,0.06704,-0.21742,-9.6413
26.92383,-0.43006,-0.38098,-9.86291
26.93387,-0.51056,-0.66215,-9.93968
26.94391,-0.33833,-0.66274,-9.94746
26.95394,-0.07646,-0.45056,-9.81907
26.96398,0.07991,-0.23568,-9.59177
26.97402,0.08649,-0.14994,-9.41654
26.98406,-0.0814,-0.14694,-9.46188
26.99409,-0.16685,-0.25094,-9.66449
27.00413,-0.17418,-0.32546,-9.62858
27.01417,-0.10894,-0.32591,-9.25868
27.0242,-0.11836,-0.31798,-8.88249
27.03424,-0.28671,-0.33444,-8.8997
27.04428,-0.4109,-0.3313,-9.37255
27.05431,-0.29553,-0.30376,-9.63891
27.06435,-0.09801,-0.23628,-9.53416
27.07439,0.00075,-0.10415,-9.30761
27.08442,-0.07646,-0.07721,-9.21977
27.09446,-0.15652,-0.14395,-9.53625
27.1045,-0.11702,-0.24466,-9.95464
27.11453,-0.05372,-0.22146,-9.93698
27.12457,0.01033,-0.11776,-9.73976
27.13461,0.05207,-0.07497,-9.57067
27.14465,0.05731,-0.14455,-9.50169
27.15468,-0.00494,-0.22131,-9.57935
27.16472,-0.08844,-0.22595,-9.78061
27.17476,-0.04085,-0.28222,-9.75323
27.18479,-0.0196,-0.34761,-9.52309
27.19483,-0.07108,-0.40716,-9.13493
27.20487,-0.19468,-0.48468,-8.96673
27.21491,-0.15951,-0.61292,-9.28995
27.22494,-0.05522,-0.63761,-9.76221
27.23498,-0.00209,-0.36362,-10.06852
27.24502,0.10744,-0.12764,-10.31272
27.25505,0.24211,-0.11088,-10.00657
27.26509,0.27294,-0.14305,-9.71627
27.27513,0.2689,-0.1652,-9.86501
27.28516,0.28177,-0.19947,-10.24928
27.2952,0.22371,-0.16909,-10.3003
27.30524,0.20291,-0.1016,-10.21112
27.31527,0.27234,-0.16221,-10.17955
27.32531,0.32441,-0.20022,-9.96317
27.33535,0.2701,-0.18196,-9.80979
27.34539,0.16729,-0.25184,-9.8674
27.35542,0.06913,-0.36512,-10.11326
27.36546,0.04205,-0.30197,-10.32679
27.3755,0.14575,-0.25169,-10.33158
27.38553,0.27473,-0.23149,-10.20409
27.39557,0.28177,-0.17747,-10.02542
27.40561,0.09577,-0.15473,-9.97125
27.41564,0.03516,-0.3524,-9.93519
27.42568,-0.02768,-0.52523,-9.72405
27.43572,-0.05881,-0.49036,-9.74784
27.44575,0.06464,-0.40208,-9.81578
27.45579,0.18256,-0.287,-9.74605
27.46583,0.25453,-0.20051,-9.60524
27.47587,0.14216,-0.19752,-9.58085
27.4859,0.07811,-0.31963,-9.68305
27.49594,0.10475,-0.37634,-9.72854
27.50598,0.13617,-0.27159,-9.85902
27.51601,0.25932,-0.18435,-9.8273
27.52605,0.32905,-0.12794,-9.71747
27.53609,0.21204,-0.11148,-9.75293
27.54612,0.08903,-0.23942,-9.97125
27.55616,0.03142,-0.31289,-10.09844
27.5662,0.03142,-0.31828,-10.15471
27.57624,0.09307,-0.29598,-10.00806
27.58627,0.18839,-0.26037,-9.7854
27.59631,0.19513,-0.19004,-9.70145
27.60635,0.1444,-0.17971,-9.74305
27.61638,0.17986,-0.18809,-9.78331
27.62642,0.25034,-0.17822,-9.74395
27.63646,0.26591,-0.13123,-9.69682
27.64649,0.18286,-0.11926,-9.55212
27.65653,-0.01317,-0.19004,-9.46802
27.66657,0.041,-0.33249,-9.60105
27.6766,0.11343,-0.24032,-9.64639
27.68664,0.05222,-0.04055,-9.62708
27.69668,0.15323,-0.01347,-9.63367
27.70672,0.31379,-0.04818,-9.38826
27.71738,0.3699,-0.0012,-9.03078
27.72742,0.33683,0.0223,-8.89087
27.73745,0.16251,-0.041,-9.00699
27.74749,-0.07467,-0.15113,-9.34217
27.75753,-0.1637,-0.20994,-9.63427
27.76756,-0.2071,-0.18465,-9.6615
27.7776,-0.14844,-0.15532,-9.56918
27.78764,-0.04848,-0.15308,-9.56094
27.79768,0.00509,-0.11567,-9.74006
27.80771,0.01422,-0.09756,-9.92621
27.81775,0.03367,-0.10175,-9.95045
27.82778,0.10759,-0.04968,-9.82176
27.83782,0.21069,0.03397,-9.6814
27.84786,0.21323,0.10475,-9.63696
27.8579,0.18166,0.11896,-9.78256
27.86793,0.18705,0.10445,-9.96975
27.87797,0.19034,0.13527,-9.98158
27.88801,0.18839,0.19528,-9.81353
27.89804,0.17747,0.27488,-9.61422
27.90808,0.1435,0.35913,-9.4333
27.91812,0.08365,0.40208,-9.28935
27.92815,-0.05207,0.46687,-9.22291
27.93819,-0.14051,0.50323,-9.06804
27.94823,-0.12405,0.57087,-9.01746
27.95827,-0.11896,0.72589,-9.0227
27.9683,-0.21204,0.99644,-9.12056
27.97834,-0.52538,1.29047,-9.26077
27.98838,-1.13171,1.42365,-9.53251
27.99841,-2.08655,1.31187,-10.10218
28.00845,-3.26823,0.96097,-10.73096
28.01849,-4.51965,0.46792,-11.28327
28.02852,-5.84021,0.03457,-11.83005
28.03856,-7.23154,-0.32367,-12.11391
28.0486,-8.41712,-0.71392,-12.12319
28.05863,-9.12341,-1.15131,-11.89739
28.06867,-9.55661,-1.51239,-11.78905
28.07871,-9.88506,-1.73011,-12.1817
28.08875,-9.9325,-1.8151,-12.52287
28.09878,-9.4948,-1.78817,-12.75541
28.10882,-8.58441,-1.52975,-13.18651
28.11886,-7.71427,-0.94182,-13.57587
28.12889,-6.87031,-0.36931,-14.42028
28.13893,-5.74938,0.04519,-15.72182
28.14897,-4.48883,0.43096,-16.74505
28.159,-3.56616,0.85727,-17.5887
28.16904,-2.89713,1.12572,-18.33839
28.17908,-2.37789,1.01754,-19.06069
28.18912,-1.7955,0.78814,-19.76443
28.19915,-0.84635,0.77976,-20.73289
28.20919,0.34671,1.04282,-21.93986
28.21923,1.20129,1.32938,-23.17273
28.22926,2.0638,1.35332,-24.17186
28.2393,2.93365,1.26788,-24.59429
28.24934,3.65684,1.34689,-23.99214
28.25937,4.36523,1.42365,-22.83485
28.26941,5.1622,1.63,-21.56218
28.27945,6.18871,1.97282,-20.6455
28.28948,7.39853,2.52139,-19.62707
28.29952,8.43178,3.17726,-18.12022
28.30956,9.24611,3.55704,-16.47211
28.3196,9.88192,3.52786,-15.69923
28.32963,10.17566,3.27542,-15.92428
28.33967,10.11505,3.06817,-15.55782
28.34971,9.91963,2.79358,-14.19567
28.35974,9.70175,2.33345,-12.80299
28.36978,9.42822,1.99362,-11.91325
28.37982,9.05128,1.7955,-11.50489
28.38985,8.37956,1.35781,-10.76418
28.40052,8.37956,1.35781,-10.76418
28.41056,8.3215,1.35602,-10.70103
28.42059,8.3402,1.32863,-10.05565
28.43063,8.43717,1.12842,-9.06684
28.44067,8.53383,0.87613,-8.19131
28.4507,8.29995,0.61681,-7.16959
28.46074,7.72519,0.02918,-6.05598
28.47078,6.97416,-0.84426,-4.85933
28.48081,6.22822,-1.60426,-3.71894
28.49085,5.63909,-1.78787,-2.69363
28.50089,5.19886,-1.55099,-1.86224
28.51093,4.92368,-1.20413,-1.42066
28.52096,4.80651,-0.91189,-1.48979
28.531,4.75294,-0.69492,-1.98644
28.54104,4.83404,-0.57999,-2.62958
28.55107,4.91156,-0.37754,-3.036
28.56111,4.76027,-0.16595,-3.3016
28.57115,4.32632,-0.07362,-3.58756
28.58118,3.69051,-0.05522,-3.81501
28.59122,2.99694,-0.21308,-3.91661
28.60126,2.42607,-0.6189,-3.74124
28.61129,1.93092,-1.15251,-3.59115
28.62133,1.72547,-1.45747,-3.25701
28.63137,1.62192,-1.38804,-2.44283
28.64141,1.33731,-1.1962,-1.41497
28.65144,1.24828,-1.04941,-0.87792
28.66148,1.33312,-1.01813,-0.9484
28.67152,1.12976,-0.91204,-1.48545
28.68155,0.68714,-0.89932,-2.70694
28.69159,0.19513,-1.21027,-4.18147
28.70163,-0.22191,-1.54965,-4.70057
28.71166,-0.6801,-1.73295,-3.99637
28.7217,-0.9086,-1.88319,-2.99934
28.73174,-0.9306,-1.97297,-2.36053
28.74178,-1.1368,-1.92359,-2.35844
28.75181,-1.60875,-1.85251,-2.4165
28.76185,-2.03956,-1.89172,-2.51631
28.77189,-2.32701,-1.94334,-2.89384
28.78192,-2.3544,-1.84354,-3.3019
28.79196,-2.36532,-1.53483,-3.47189
28.802,-2.20701,-1.0509,-3.35024
28.81203,-2.15658,-0.41794,-2.84147
28.82207,-2.51002,-0.03651,-1.95367
28.83211,-3.32809,0.06719,-1.23316
28.84214,-4.06266,-0.09442,-0.95274
28.85218,-4.4191,-0.44278,-1.00556
28.86222,-4.10336,-0.73592,-1.12108
28.87226,-3.52172,-0.71602,-1.45328
28.88229,-3.24354,-0.20426,-1.46585
28.89233,-3.48925,0.62264,-1.21805
28.90237,-4.2726,1.06377,-1.89666
28.9124,-5.08693,0.76629,-3.90629
28.92244,-6.03878,0.17552,-6.58675
28.93248,-7.02982,-0.42168,-9.08031
28.94251,-7.95369,-0.82166,-10.89481
28.95255,-8.56391,-1.04073,-11.84037
28.96259,-9.06116,-1.22778,-11.98792
28.97263,-9.68799,-1.50969,-12.10359
28.98266,-10.47343,-1.69973,-11.95545
28.9927,-11.12855,-1.93437,-11.69762
29.00274,-10.97547,-2.47949,-11.46164
29.01277,-10.90768,-2.50703,-11.62654
29.02281,-11.14097,-1.70602,-12.66802
29.03285,-11.05208,-0.71916,-12.97089
29.04288,-10.49663,-0.13018,-13.20836
29.05292,-9.77448,0.25693,-13.45018
29.06296,-8.8373,0.89438,-13.73733
29.07299,-7.75691,1.70662,-15.38694
29.08303,-6.78188,2.42233,-16.52119
29.09307,-5.35119,2.52528,-17.48934
29.10311,-3.48207,2.33135,-18.97929
29.11314,-1.20503,2.61507,-21.46267
29.12318,1.30499,3.83985,-25.05936
29.13322,4.22592,5.44726,-28.72219
29.14325,7.98406,6.38444,-27.85878
29.15329,10.94853,6.88842,-24.35217
29.16333,12.66323,7.24111,-20.23041
29.17336,14.33663,6.86807,-18.43984
29.1834,15.41821,6.05733,-19.92978
29.19344,15.66481,5.49409,-23.11692
29.20348,15.00745,5.45324,-26.40026
29.21351,13.78791,4.92652,-28.59096
29.22355,12.06528,3.86693,-27.30288
29.23359,10.06672,2.70335,-23.31129
29.24362,8.45333,1.03968,-18.92991
29.25366,7.16899,-0.55037,-15.08153
29.2637,5.97099,-1.57703,-12.34211
29.27373,4.45097,-2.13099,-10.63504
29.28377,2.73642,-2.36802,-9.60973
29.29381,1.39941,-2.44403,-9.47116
29.30385,0.80984,-2.46603,-9.84166
29.31388,0.60469,-2.19279,-9.65836
29.32392,0.60005,-1.56267,-9.08629
29.33396,0.58104,-0.69941,-8.38539
29.34399,0.3726,0.07512,-7.68808
29.35403,0.07317,0.54618,-7.33164
29.36407,-0.32172,0.76689,-7.47814
29.3741,-0.9104,0.80221,-8.14133
29.38414,-1.36245,0.77467,-8.59982
29.39418,-1.32953,0.82061,-8.67883
29.40421,-0.82989,0.98222,-8.40499
29.41425,-0.16774,1.28943,-8.06771
29.42429,0.35853,1.77321,-8.12053
29.43433,0.56129,2.1488,-8.49972
29.44436,0.64419,2.07323,-8.67554
29.4544,0.57206,1.67923,-8.75021
29.46444,0.40342,1.25112,-8.72866
29.47447,0.24915,0.78889,-8.98215
29.48451,0.12285,0.56698,-8.9401
29.49455,0.13078,0.54034,-9.03287
29.50458,0.18809,0.44008,-9.14121
29.51462,0.04699,0.33549,-9.2711
29.52466,-0.15921,0.11986,-9.74036
29.5347,-0.3512,-0.19842,-10.20513
29.54473,-0.47241,-0.31529,-10.54257
29.55477,-0.4139,-0.33938,-10.448
29.56481,-0.37484,-0.3928,-10.16234
29.57484,-0.17762,-0.47241,-9.81997
29.58488,0.01332,-0.54378,-9.76685
29.59492,0.0606,-0.49919,-10.05909
29.60495,0.12809,-0.39908,-10.38575
29.61499,0.11133,-0.28207,-10.631
29.62503,0.02888,-0.17807,-10.76194
29.63507,0.05851,-0.17433,-10.70253
29.6451,0.14246,-0.14799,-10.62786
29.65514,0.22251,-0.13692,-10.38485
29.66518,0.21039,-0.19169,-9.93893
29.67521,-0.11911,-0.15936,-9.66001
29.68525,-0.39819,-0.12405,-9.80336
29.69529,-0.44802,-0.12136,-10.02467
29.70532,-0.40911,-0.18854,-10.12358
29.71536,-0.28072,-0.15113,-9.97679
29.7254,-0.27713,0.05686,-9.641
29.73543,-0.47824,0.24152,-9.65312
29.74547,-0.51221,0.14754,-9.79423
29.75551,-0.413,0.06853,-9.8484
29.76555,-0.34566,0.09397,-9.81413
29.77558,-0.31499,0.09906,-9.54553
29.78562,-0.39923,0.0404,-9.28875
29.79566,-0.57416,-0.1631,-9.33769
29.80569,-0.72559,-0.31349,-9.433
29.81573,-0.65646,-0.25408,-9.65043
29.82577,-0.4329,-0.0431,-9.93235
29.83581,-0.41884,0.18884,-9.99624
29.84584,-0.44128,0.13168,-9.88222
29.85588,-0.32067,-0.09637,-9.64773
29.86592,-0.19573,-0.21293,-9.46218
29.87595,-0.15607,-0.15772,-9.38138
29.88599,-0.19124,-0.0823,-9.41325
29.89603,-0.1848,-0.08484,-9.55062
29.90606,-0.14081,-0.10759,-9.70026
29.9161,-0.14889,-0.09547,-9.53521
29.92614,-0.13078,-0.09218,-9.13014
29.93618,-0.05746,-0.1239,-8.83625
29.94621,0.05192,-0.10564,-8.74557
29.95625,0.1248,0.02933,-8.9814
29.96629,0.07257,0.1031,-9.43809
29.97632,-0.04339,0.02544,-9.86815
29.98636,-0.32441,-0.06315,-9.91409
29.9964,-0.61531,-0.22281,-9.56813
30.00643,-0.65362,-0.36377,-9.28756
30.01647,-0.62848,-0.35808,-9.34906
30.02651,-0.61351,-0.2077,-9.89673
30.03655,-0.56817,-0.0404,-10.42555
30.04658,-0.4974,0.07961,-10.63654
30.05662,-0.33923,0.07646,-10.49049
30.06666,-0.17717,0.05522,-10.06268
30.07669,-0.11911,0.07048,-9.7845
30.08673,-0.22595,0.08918,-9.92456
30.09677,-0.34641,0.03457,-10.14573
30.1068,-0.4338,0.01302,-10.39517
30.11684,-0.36242,-0.04863,-10.33966
30.12688,-0.26845,-0.00314,-10.11505
30.13692,-0.28087,0.06898,-10.08513
30.14695,-0.3524,0.07572,-10.09934
30.15699,-0.44143,0.00673,-10.00597
30.16703,-0.54019,-0.07991,-9.88656
30.17706,-0.54124,-0.1655,-9.69532
30.1871,-0.54049,-0.1634,-9.47041
30.19714,-0.64628,-0.15802,-9.36148
30.20717,-0.65451,-0.18331,-9.66135
30.21721,-0.56024,-0.09532,-10.18149
30.22725,-0.41958,0.00898,-10.11984
30.23729,-0.36916,0.02379,-9.73153
30.24732,-0.50832,-0.07242,-9.41325
30.25736,-0.83992,-0.23688,-9.23444
30.2674,-1.03729,-0.39609,-9.38452
30.27743,-1.02397,-0.4959,-9.65866
30.28747,-0.90621,-0.45026,-9.73961
30.29751,-0.77018,-0.2463,-9.69786
30.30754,-0.75432,-0.07557,-9.66629
30.31758,-0.91458,-0.11028,-9.56244
30.32762,-0.95469,-0.26007,-9.80874
30.33766,-0.86012,-0.29134,-10.10772
30.34769,-0.69806,-0.21368,-10.03081
30.35773,-0.52987,-0.11253,-9.7875
30.36777,-0.46941,-0.04983,-9.6003
30.3778,-0.59885,-0.07916,-9.48897
30.38784,-0.7018,-0.22954,-9.32272
30.39788,-0.71317,-0.27503,-9.37764
30.40791,-0.60648,-0.21548,-9.59551
30.41795,-0.46507,-0.11043,-9.66809
30.42799,-0.39699,-0.03965,-9.61796
30.43803,-0.61995,0.02454,-9.54389
30.44806,-0.82585,-0.11672,-9.63846
30.4581,-0.75387,-0.26456,-9.82745
30.46814,-0.63865,-0.21982,-9.90466
30.47817,-0.60723,-0.11821,-9.72106
30.48821,-0.67397,-0.13123,-9.55705
30.49825,-0.89513,-0.25259,-9.56932
30.50828,-1.08427,-0.34402,-9.90077
30.51832,-1.0343,-0.37798,-10.23731
30.52836,-0.80924,-0.30227,-10.12224
30.53839,-0.52568,-0.1459,-9.79797
30.54843,-0.40492,0.01018,-9.59222
30.55847,-0.48153,-0.03097,-9.57097
30.56851,-0.52613,-0.09846,-9.85857
30.57854,-0.49321,-0.09113,-10.27561
30.58858,-0.42303,-0.08963,-10.21022
30.59862,-0.43814,-0.0018,-9.93145
30.60865,-0.60169,0.02394,-9.73243
30.61869,-0.7648,-0.12614,-9.37839
30.62873,-0.9288,-0.34866,-9.21663
30.63876,-0.87269,-0.47869,-9.40472
30.6488,-0.8278,-0.34432,-9.64699
30.65884,-0.89498,-0.09667,-9.72061
30.66888,-0.91294,-0.05447,-9.8487
30.67891,-0.87792,-0.13348,-9.91678
30.68895,-0.83408,-0.16685,-9.91319
30.69899,-0.84889,-0.0814,-9.7875
30.70902,-0.83498,-0.05088,-9.72196
30.71906,-0.76929,-0.09562,-9.71911
30.7291,-0.67861,-0.09786,-9.83942
30.73913,-0.75013,-0.05073,-10.03724
30.74917,-0.90471,-0.08559,-10.01509
30.75921,-1.00287,-0.09936,-9.90272
30.76925,-0.9514,-0.09981,-10.11012
30.77928,-0.74804,-0.02858,-10.11969
30.78932,-0.65706,0.13153,-10.01584
30.79936,-0.75552,0.18331,-9.77762
30.80939,-0.82136,0.04369,-9.66075
30.81943,-0.86131,-0.07916,-9.73841
30.82947,-0.81762,-0.0603,-9.93609
30.8395,-0.703,0.02978,-9.88925
30.84954,-0.61441,0.11806,-9.71896
30.85958,-0.62444,0.11492,-9.54254
30.86961,-0.83228,0.0214,-9.44108
30.87965,-0.99838,-0.12614,-9.63442
30.88969,-1.00811,-0.23433,-9.82042
30.89973,-0.92895,-0.20261,-9.70834
30.90976,-0.79772,-0.14171,-9.42433
30.9198,-0.67487,-0.12989,-9.21364
30.92984,-0.60843,-0.1242,-9.13837
30.93987,-0.62848,-0.10116,-9.26481
30.94991,-0.66828,-0.10699,-9.41161
30.95995,-0.71003,-0.19199,-9.50797
30.96998,-0.63566,-0.24855,-9.61197
30.98002,-0.48138,-0.1637,-9.72839
30.99006,-0.32531,-0.0226,-9.75787
31.0001,-0.20066,0.07362,-9.62753
31.01013,-0.12974,0.06913,-9.45395
31.02017,-0.13856,-0.00509,-9.40278
31.03021,-0.2469,-0.07796,-9.48104
31.04024,-0.227,-0.07452,-9.767
31.05028,-0.01287,0.04489,-10.07405
31.06032,0.26516,0.27488,-10.16862
31.07035,0.50862,0.54034,-10.14767
31.08039,0.62578,0.73786,-9.99145
31.09043,0.58314,0.7645,-9.89015
31.10047,0.37035,0.72918,-9.9515
31.1105,-0.06569,0.59167,-10.07989
31.12054,-0.51041,0.4341,-10.30913
31.13058,-1.10403,0.34716,-10.47553
31.14061,-1.91387,0.167,-10.58896
31.15065,-2.85194,0.01556,-10.6958
31.16069,-3.78389,-0.24166,-10.84035
31.17072,-4.91799,-0.44353,-11.12735
31.18076,-6.06616,-0.59167,-11.24661
31.1908,-7.23199,-0.69686,-11.22791
31.20084,-8.22079,-0.84096,-10.97412
31.21087,-8.82533,-1.02487,-10.35178
31.22091,-9.05293,-1.22688,-9.42717
31.23095,-9.05083,-1.32579,-8.68272
31.24098,-8.93082,-1.21476,-8.32898
31.25102,-8.65459,-0.99973,-8.40604
31.26106,-8.40125,-0.78679,-8.97122
31.27109,-8.12712,-0.73128,-9.953
31.28113,-7.97179,-0.64973,-10.80578
31.29117,-7.83742,-0.48932,-11.45326
31.30121,-7.40257,-0.38636,-11.75284
31.31124,-6.70317,-0.35539,-11.98896
31.32128,-5.54677,-0.33728,-12.66248
31.33132,-4.36089,-0.15757,-13.80317
31.34135,-3.63619,0.1863,-15.18373
31.35139,-3.3013,0.52403,-16.63626
31.36143,-3.05635,0.69537,-17.90953
31.37146,-2.7252,0.63057,-19.06892
31.3815,-2.20431,0.47136,-20.21948
31.39154,-1.53334,0.25558,-20.90901
31.40158,-0.88137,-0.19318,-21.41718
31.41161,-0.20845,-0.84141,-22.18557
31.42165,0.44068,-1.32669,-23.34721
31.43169,1.03295,-1.42874,-24.33511
31.44172,1.69973,-0.95095,-24.89296
31.45176,2.54429,-0.03651,-24.89476
31.4618,3.47743,1.00123,-24.04676
31.47183,4.59552,1.89202,-23.29409
31.48187,5.8414,2.74346,-22.88333
31.49191,7.07846,3.74513,-22.15056
31.50195,8.21525,4.92308,-20.8713
31.51198,9.27738,5.90365,-19.19955
31.52202,10.13735,6.52495,-17.38355
31.53206,10.4881,6.70481,-15.86099
31.54209,10.29641,6.42574,-14.63501
31.55213,9.69068,5.91443,-13.45107
31.56217,8.75455,5.22924,-12.1603
31.5722,7.80839,4.37241,-10.8589
31.58224,7.18066,3.50107,-9.59895
31.59228,6.88153,2.75348,-8.59055
31.60232,6.49472,2.27599,-7.92855
31.61235,5.93837,1.90279,-7.2248
31.62239,5.31662,1.43203,-6.51073
31.63243,4.77134,1.03474,-5.89228
31.64246,4.51457,0.87089,-5.55889
31.6525,4.29041,0.91997,-5.44816
31.66254,4.24268,0.95589,-4.97455
31.67257,4.16486,0.96382,-4.74381
31.68261,4.14197,0.92371,-4.603
31.69265,4.02151,0.92895,-4.10456
31.70269,3.61584,0.94676,-3.29547
31.71272,3.22484,0.76899,-2.63631
31.72339,3.02612,0.32726,-2.09523
31.73342,2.83698,-0.14051,-1.77769
31.74346,2.61372,-0.621,-1.59424
31.7535,2.27195,-1.00706,-1.321
31.76353,2.00604,-1.16702,-0.98192
31.77357,2.05467,-1.1139,-0.9089
31.78361,2.35185,-0.89932,-1.19515
31.79365,2.55701,-0.72993,-1.64527
31.80368,2.49147,-1.13889,-1.99257
31.81372,2.20641,-1.40854,-2.23633
31.82376,1.94619,-1.69988,-2.2079
31.83379,1.80224,-1.93751,-1.84533
31.84383,1.55653,-2.06545,-1.25606
31.85387,1.37487,-2.20865,-0.60259
31.86391,1.47019,-2.4138,-0.02708
31.87394,1.73639,-2.60878,0.11881
31.88398,1.80433,-2.69707,-0.082
31.89402,1.62671,-2.62105,-0.55306
31.90405,1.25905,-2.34318,-1.30709
31.91409,0.67397,-1.99871,-2.23289
31.92413,0.1236,-1.78892,-3.2835
31.93416,-0.15443,-1.74268,-4.40204
31.9442,-0.34252,-1.74223,-5.40805
31.95424,-0.79293,-1.7533,-5.98206
31.96428,-1.49742,-1.73969,-5.53644
31.97431,-2.01831,-1.66397,-4.97321
31.98435,-2.41934,-1.67011,-4.59402
31.99439,-2.51825,-1.69165,-4.48165
32.00442,-2.40243,-1.76557,-4.49122
32.01446,-2.33016,-1.78248,-4.4779
32.0245,-2.30607,-1.75749,-4.38663
32.03453,-2.18576,-1.611,-3.9621
32.04457,-1.99931,-1.37248,-3.21571
32.05461,-1.96893,-1.08203,-2.66609
32.06465,-2.22421,-0.82091,-2.36412
32.07468,-2.75707,-0.69671,-2.14281
32.08472,-3.3456,-0.6614,-2.2314
32.09476,-3.72418,-0.54857,-2.72864
32.10479,-3.9021,-0.26142,-3.69216
32.11483,-3.84584,0.02798,-4.72585
32.12487,-3.75291,0.3087,-4.97994
32.1349,-3.87531,0.4522,-4.60151
32.14494,-4.30418,0.34028,-4.15888
32.15498,-4.92547,0.16625,-3.95866
32.16502,-5.55814,-0.15039,-4.17085
32.17505,-6.17689,-0.6617,-4.92861
32.18509,-7.0201,-1.24139,-6.26144
32.19513,-7.58438,-1.70587,-7.69227
32.20516,-7.95937,-1.85715,-8.84373
32.2152,-8.12083,-1.62312,-9.06864
32.22524,-7.92975,-1.17825,-8.69559
32.23527,-7.89563,-0.91922,-8.28992
32.24531,-8.3405,-0.74774,-8.29247
32.25535,-8.79704,-0.68534,-9.53835
32.26539,-9.23967,-0.5143,-11.79159
32.27542,-9.20047,-0.30017,-13.8928
32.28546,-7.97808,0.31559,-14.433
32.2955,-6.43157,1.72951,-15.38768
32.30553,-5.35059,3.42999,-17.06542
32.31557,-4.42748,4.49631,-19.21766
32.32561,-4.34248,4.4396,-22.76063
32.33564,-4.65059,3.38166,-24.84224
32.34568,-4.4408,2.11468,-25.48224
32.35572,-2.97689,1.60067,-26.43139
32.36576,0.02484,2.3336,-27.27534
32.37579,3.61195,3.78493,-27.98807
32.38583,6.37247,5.30121,-27.96038
32.39587,8.07729,6.0696,-26.07121
32.40653,8.79345,5.41598,-22.32384
32.41657,8.46844,3.66073,-17.93167
32.4266,7.55251,1.33282,-13.957
32.43664,6.73504,-0.81627,-12.47185
32.44668,6.20038,-2.05019,-13.1717
32.45672,5.75521,-2.04405,-14.95927
32.46675,5.55814,-1.25187,-16.82106
32.47679,5.33308,-0.46627,-16.96247
32.48683,4.88672,-0.40522,-15.64162
32.49686,4.22098,-0.91698,-13.99785
32.5069,3.46037,-1.55967,-12.76828
32.51694,2.80571,-2.03986,-11.77034
32.52697,2.17379,-2.34407,-11.06735
32.53701,1.68896,-2.22511,-10.70941
32.54705,1.55324,-1.79086,-11.01946
32.55709,1.48949,-1.18678,-11.05837
32.56712,1.23855,-0.73771,-10.55155
32.57716,0.9918,-0.73248,-9.31419
32.5872,0.722,-0.98342,-8.08297
32.59723,0.46687,-1.24888,-7.50627
32.60727,0.39534,-1.22538,-7.87618
32.61731,0.41509,-0.82809,-8.76996
32.62734,0.3904,-0.1646,-9.54463
32.63738,0.47375,0.38247,-10.01105
32.64742,0.59047,0.59062,-10.1562
32.65746,0.47271,0.56069,-9.97948
32.66749,0.2665,0.50578,-9.89194
32.67753,0.11702,0.54318,-10.04772
32.68757,0.11148,0.63446,-10.40655
32.6976,0.17582,0.85323,-10.55888
32.70764,0.18974,1.11166,-10.73695
32.71768,0.35793,1.0946,-10.80189
32.72771,0.58344,1.12527,-10.39757
32.73775,0.65451,1.21925,-10.00806
32.74779,0.61336,1.10747,-9.60524
32.75783,0.47211,0.85488,-9.351
32.76786,0.27219,0.60409,-9.45949
32.7779,-0.01481,0.35748,-9.54404
32.78794,-0.16774,0.18765,-9.54628
32.79797,-0.09427,0.05866,-9.51171
32.80801,-0.03576,-0.05851,-9.22231
32.81805,-0.20859,-0.17597,-9.17847
32.82809,-0.37754,-0.39085,-9.35594
32.83812,-0.45939,-0.5176,-9.48014
32.84816,-0.32561,-0.52717,-9.55631
32.8582,-0.12136,-0.43919,-9.32691
32.86823,-0.02948,-0.28162,-9.21588
32.87827,-0.13587,-0.1875,-9.4333
32.88831,-0.23463,-0.2074,-9.87788
32.89834,-0.13467,-0.19603,-10.22788
32.90838,0.13871,-0.08215,-10.18254
32.91842,0.42407,0.11178,-9.71866
32.92846,0.5571,0.23239,-9.31689
32.93849,0.50892,0.21338,-9.11443
32.94853,0.43904,0.13527,-9.11383
32.95857,0.42392,0.1031,-9.28711
32.9686,0.49425,0.21742,-9.65941
32.97864,0.61396,0.32202,-9.74246
32.98868,0.67157,0.3699,-9.52309
32.99871,0.55126,0.35255,-9.46174
33.00875,0.33594,0.2677,-9.6627
33.01879,0.1875,0.19797,-9.91633
33.02883,0.09921,0.09158,-9.9708
33.03886,-0.03068,-0.03142,-9.79318
33.0489,-0.09906,-0.14066,-9.77612
33.05894,-0.09068,-0.1655,-10.03934
33.06897,0.00793,-0.1649,-10.09126
33.07901,0.13138,-0.09173,-9.92127
33.08905,0.06075,-0.01796,-9.86411
33.09908,0.01047,-0.1022,-9.66479
33.10912,0.05402,-0.24825,-9.41804
33.11916,0.18974,-0.33893,-9.38228
33.1292,0.3708,-0.2695,-9.34232
33.13923,0.4561,-0.17074,-9.30058
33.14927,0.36721,-0.11477,-9.4764
33.15931,0.35195,-0.17478,-9.85034
33.16934,0.33594,-0.10699,-10.08542
33.17938,0.39908,-0.10445,-10.0959
33.18942,0.50144,-0.13348,-9.80291
33.19945,0.47435,-0.15173,-9.58893
33.20949,0.26336,-0.18705,-9.56379
33.21953,0.09322,-0.2674,-9.70729
33.22957,0.05342,-0.34477,-9.87967
33.2396,0.11477,-0.37454,-9.8906
33.24964,0.17957,-0.34462,-9.69517
33.25968,0.15892,-0.25977,-9.66719
33.26971,0.1254,-0.2059,-9.7848
33.27975,0.05417,-0.21712,-9.88581
33.28979,-0.05941,-0.21847,-10.05924
33.29982,-0.02753,-0.24511,-10.02826
33.30986,0.0636,-0.27922,-9.66674
33.3199,0.11432,-0.3283,-9.26466
33.32994,0.06494,-0.33549,-9.08884
33.33997,0.0226,-0.33115,-9.22516
33.35001,0.07931,-0.28207,-9.57501
33.36005,0.14455,-0.18959,-9.86456
33.37008,0.12375,-0.12764,-10.01899
33.38012,0.07841,-0.13033,-9.96616
33.39016,0.09023,-0.19677,-9.70265
33.40019,0.08874,-0.30167,-9.47041
33.41023,0.05641,-0.28506,-9.45949
33.42027,0.01242,-0.25723,-9.62634
33.43031,-0.00449,-0.2472,-9.84361
33.44034,0.06285,-0.19767,-10.01854
33.45038,0.13827,-0.13153,-10.09321
33.46042,0.18271,-0.04609,-10.03874
33.47045,0.26591,-0.12016,-9.85034
33.48049,0.29479,-0.21234,-9.63083
33.49053,0.25573,-0.23224,-9.59342
33.50056,0.21563,-0.19558,-9.71343
33.5106,0.17523,-0.15413,-9.80246
33.52064,0.11851,-0.16939,-9.81697
33.53068,0.04878,-0.23164,-9.79797
33.54071,-0.02409,-0.31798,-9.80246
33.55075,-0.06434,-0.3928,-9.79633
33.56079,-0.03741,-0.39011,-9.8496
33.57082,0.06464,-0.32082,-9.92052
33.58086,0.2056,-0.20695,-9.88686
33.5909,0.2469,-0.1248,-9.8894
33.60093,0.17388,-0.12495,-9.91708
33.61097,0.05148,-0.23822,-10.0335
33.62101,-0.11148,-0.35285,-10.06313
33.63105,-0.24122,-0.37589,-9.95404
33.64108,-0.14455,-0.3503,-9.84526
33.65112,0.02843,-0.30855,-9.74754
33.66116,0.14305,-0.25812,-9.6615
33.67119,0.10968,-0.18091,-9.69038
33.68123,-0.00284,-0.18226,-9.73692
33.69127,-0.07018,-0.29329,-9.8686
33.70131,-0.10101,-0.37454,-9.87578
33.71134,-0.13018,-0.36691,-9.70864
33.72138,-0.06689,-0.35943,-9.55541
33.73142,0.08739,-0.35659,-9.36971
33.74145,0.21323,-0.3515,-9.27214
33.75149,0.25678,-0.28686,-9.28995
33.76153,0.13482,-0.24062,-9.38931
33.77156,0.0205,-0.32486,-9.54029
33.7816,-0.02679,-0.45804,-9.79618
33.79164,-0.01541,-0.49261,-9.94282
33.80168,0.05177,-0.43515,-9.91708
33.81171,0.18241,-0.3521,-9.7227
33.82175,0.27653,-0.2668,-9.60449
33.83179,0.29523,-0.24032,-9.60928
33.84182,0.23747,-0.27444,-9.66958
33.85186,0.11806,-0.33055,-9.67213
33.8619,0.08455,-0.42318,-9.77343
33.87193,0.14829,-0.45984,-9.81024
33.88197,0.30496,-0.42288,-9.79004
33.89201,0.50503,-0.32292,-9.80037
33.90204,0.61546,-0.17986,-9.76655
33.91208,0.62324,-0.13033,-9.70654
33.92212,0.50518,-0.10265,-9.65806
33.93216,0.37379,-0.20396,-9.73886
33.94219,0.34237,-0.37499,-9.81638
33.95223,0.38098,-0.39819,-9.79408
33.96227,0.52942,-0.2698,-9.76116
33.9723,0.66349,-0.12091,-9.7664
33.98234,0.74385,-0.0018,-9.88835
33.99238,0.73966,0.10415,-10.1146
34.00242,0.64509,0.14096,-10.22489
34.01245,0.48228,0.08888,-10.06672
34.02249,0.31948,-0.04848,-9.77717
34.03253,0.20231,-0.13393,-9.61033
34.04256,0.1456,-0.1242,-9.50618
34.0526,0.16804,-0.06,-9.40502
34.06264,0.23882,0.02843,-9.43974
34.07267,0.1643,0.11163,-9.52907
34.08271,-0.11447,0.09981,-9.46338
34.09275,-0.40163,0.00793,-9.31973
34.10279,-0.62683,-0.11687,-9.18281
34.11282,-0.93778,-0.17223,-9.12281
34.12286,-1.45433,-0.10968,-9.11128
34.1329,-2.13458,-0.08859,-9.27229
34.14293,-2.98677,-0.10609,-9.62349
34.15297,-3.92649,-0.17747,-10.14259
34.16301,-4.96917,-0.27728,-10.84394
34.17305,-6.06317,-0.37499,-11.39176
34.18308,-7.02414,-0.73622,-11.55726
34.19312,-7.95698,-1.10343,-11.20172
34.20316,-8.79465,-1.44101,-10.69415
34.21319,-9.72151,-1.70258,-10.50291
34.22323,-10.63579,-1.80343,-10.75236
34.23327,-11.11882,-1.89097,-11.49516
34.2433,-11.14546,-1.97866,-12.43503
34.25334,-10.54481,-1.85401,-13.2543
34.26338,-9.55122,-1.50939,-14.09377
34.27342,-8.35023,-1.15281,-14.82909
34.28345,-7.12844,-0.93314,-15.24119
34.29349,-6.30229,-0.74939,-15.81415
34.30353,-5.70778,-0.67711,-17.57299
34.31356,-4.96812,-0.70898,-19.93936
34.3236,-3.83641,-0.66933,-21.44247
34.33364,-2.98871,-0.01751,-22.69568
34.34367,-2.40049,0.44397,-23.26266
34.35371,-2.31639,0.39265,-22.74761
34.36375,-2.62045,-0.38532,-21.75461
34.37378,-2.75019,-1.48306,-20.50125
34.38382,-2.26641,-2.01322,-20.20706
34.39386,-1.21925,-1.47797,-20.89794
34.4039,-0.07377,-0.13048,-21.66723
34.41393,0.71811,1.09056,-21.81746
34.42397,1.11854,1.55922,-20.73409
34.43401,1.3843,1.43293,-19.07251
34.44404,1.66173,1.09669,-17.35437
34.45408,2.08625,0.9285,-15.93147
34.46412,2.67118,0.89244,-15.30149
34.47416,3.19327,0.96606,-15.05878
34.48419,3.46636,1.01499,-14.326
34.49423,3.4704,0.72036,-13.74586
34.50427,3.45423,0.03771,-14.19223
34.5143,3.65086,-0.5143,-14.39918
34.52434,4.42508,-0.94376,-13.26747
34.53438,5.45743,-1.19471,-11.87389
34.54442,6.4226,-1.09086,-10.94794
34.55445,7.00663,-0.69971,-10.1788
34.56449,7.40975,-0.27204,-9.8674
