t,ax,ay,az
0.0,0.07916,-2.81498,-8.88653
0.01004,0.07916,-2.81498,-8.88653
0.02007,0.15787,-2.70171,-8.86109
0.03011,0.20201,-2.6004,-8.92499
0.04015,0.13737,-2.50987,-9.06744
0.05019,0.02918,-2.40647,-9.21813
0.06023,-0.06015,-2.37146,-9.26855
0.07026,-0.06,-2.33285,-9.39081
0.0803,-0.01227,-2.27479,-9.48747
0.09034,0.03786,-2.20027,-9.61347
0.10038,0.12166,-2.18665,-9.66135
0.11041,0.10744,-2.21254,-9.64923
0.12045,0.18121,-2.11677,-9.45859
0.13049,0.40297,-1.74014,-9.09438
0.14053,0.5969,-1.46929,-8.94743
0.15056,0.53256,-1.84728,-9.00758
0.1606,0.44263,-1.98135,-9.04649
0.17064,0.33668,-2.18411,-9.17039
0.18068,0.21967,-2.47231,-9.21693
0.19071,0.27025,-2.5808,-9.23638
0.20075,0.39489,-2.53262,-9.13283
0.21079,0.49261,-2.44882,-9.06983
0.22083,0.52014,-2.34168,-9.22276
0.23086,0.54663,-2.21957,-9.54972
0.2409,0.54498,-2.08655,-9.82969
0.25094,0.56428,-1.90758,-10.00612
0.26098,0.56847,-1.7156,-10.21576
0.27101,0.60678,-1.68791,-10.39697
0.28105,0.63386,-1.80074,-10.45204
0.29109,0.70838,-1.86433,-10.37123
0.30113,0.87014,-1.90728,-10.32664
0.31116,1.08802,-1.95561,-10.30853
0.3212,1.22852,-2.11288,-10.23312
0.33124,1.16463,-2.44987,-10.00986
0.34128,1.14922,-2.67073,-9.69906
0.35131,1.24124,-2.70515,-9.44961
0.36135,1.43024,-2.6221,-9.40592
0.37139,1.61668,-2.56584,-9.56319
0.38143,1.82573,-2.55776,-9.63427
0.39146,1.99347,-2.58813,-9.65701
0.4015,2.10076,-2.59771,-9.7462
0.41154,2.04195,-2.58334,-9.87264
0.42158,1.88035,-2.62045,-9.93938
0.43161,1.69135,-2.68749,-9.95569
0.44165,1.60322,-2.82022,-10.00342
0.45169,1.67729,-2.93948,-9.85648
0.46173,1.74058,-3.03555,-9.55975
0.47176,1.84698,-3.23023,-9.34158
0.4818,1.97282,-3.32749,-9.19463
0.49184,2.03387,-3.24549,-9.13193
0.50188,1.93167,-3.11471,-9.17593
0.51191,1.76662,-2.97554,-9.30566
0.52195,1.64407,-2.86347,-9.38138
0.53199,1.62626,-2.81827,-9.35489
0.54203,1.65559,-2.80346,-9.36282
0.55206,1.70347,-2.82501,-9.4782
0.5621,1.78578,-2.80047,-9.6434
0.57214,1.77051,-2.71562,-9.72435
0.58218,1.62237,-2.69063,-9.52967
0.59221,1.53393,-2.71188,-9.32706
0.60225,1.41063,-2.89264,-8.77699
0.61229,1.61369,-3.20569,-8.20897
0.62233,1.89187,-3.4876,-8.63095
0.63236,1.80568,-3.71685,-9.0824
0.6424,1.5706,-3.84464,-9.29893
0.65244,1.14248,-3.79032,-9.08974
0.66248,1.06497,-3.40725,-8.75305
0.67251,1.24858,-2.8717,-8.6525
0.68255,1.41093,-2.54668,-8.63783
0.69259,1.56596,-2.84177,-8.95027
0.70263,1.56596,-2.84177,-8.95027
0.71266,1.56341,-3.07071,-9.21498
0.7227,1.48785,-3.20284,-9.38332
0.73274,1.3409,-3.18339,-9.35489
0.74278,1.20234,-3.0122,-9.36103
0.75281,1.18393,-2.73283,-9.31734
0.76285,1.31142,-2.51137,-9.124
0.77289,1.47498,-2.50329,-9.0019
0.78293,1.55369,-2.56015,-9.0411
0.79296,1.50161,-2.64305,-9.21783
0.803,1.39328,-2.70246,-9.48418
0.81304,1.27686,-2.76276,-9.54329
0.82308,1.16882,-2.87469,-9.44902
0.83311,1.11271,-2.7858,-9.24207
0.84315,1.20279,-2.66175,-8.97601
0.85319,1.27252,-2.52618,-8.86124
0.86323,1.3008,-2.34976,-8.9169
0.87326,1.33836,-2.21239,-9.08435
0.8833,1.3222,-2.16585,-9.21648
0.89334,1.24513,-2.16675,-9.3715
0.90338,1.06377,-2.27778,-9.45799
0.91341,0.98252,-2.35485,-9.41086
0.92345,1.02143,-2.30547,-9.25224
0.93349,1.07844,-2.22077,-9.08719
0.94353,1.17331,-2.14491,-9.01462
0.95356,1.28135,-2.1271,-9.05846
0.9636,1.27252,-2.16795,-9.27514
0.97364,1.21506,-2.29305,-9.53685
0.98368,1.11794,-2.37146,-9.75098
0.99371,0.99763,-2.4578,-9.82386
1.00375,0.95843,-2.51675,-9.73812
1.01379,0.98761,-2.48773,-9.54448
1.02383,1.09206,-2.33629,-9.41804
1.03386,1.19156,-2.16211,-9.38392
1.0439,1.13186,-2.04495,-9.33035
1.05394,1.00661,-1.96519,-9.373
1.06398,0.85518,-1.86059,-9.57441
1.07401,0.75821,-1.81391,-9.93728
1.08405,0.67307,-1.83052,-10.25601
1.09409,0.51131,-2.01876,-10.07525
1.10413,0.45744,-2.27569,-9.5608
1.11416,0.4974,-2.44044,-9.2298
1.1242,0.44697,-2.38253,-9.15977
1.13424,0.25214,-2.16541,-9.17413
1.14428,-0.01302,-2.03627,-9.10919
1.15431,-0.1848,-2.03941,-8.96494
1.16435,-0.22745,-2.08595,-8.82009
1.17439,-0.20695,-2.13608,-8.73884
1.18443,-0.13078,-2.07577,-8.6492
1.19446,-0.09412,-2.00574,-8.68571
1.2045,-0.14365,-1.94439,-8.97302
1.21454,-0.21892,-1.88528,-9.37195
1.22458,-0.25753,-1.76931,-9.56214
1.23461,-0.34521,-1.76647,-9.59072
1.24465,-0.42542,-1.70258,-9.52383
1.25469,-0.53391,-1.61803,-9.39919
1.26473,-0.54348,-1.52855,-9.37076
1.27476,-0.56967,-1.4663,-9.17727
1.2848,-0.59675,-1.46091,-9.17623
1.29484,-0.64808,-1.5676,-9.23967
1.30488,-0.62968,-1.76094,-9.23608
1.31491,-0.61965,-1.95472,-9.44378
1.32495,-0.68265,-2.01038,-9.57995
1.33499,-0.76674,-1.94364,-9.44647
1.34503,-0.86251,-1.9188,-9.55601
1.35506,-0.99823,-1.90354,-9.87055
1.3651,-1.15176,-1.91431,-10.508
1.37514,-1.17301,-1.879,-11.17733
1.38518,-1.06422,-1.74522,-11.60066
1.39521,-0.89453,-1.54276,-11.67862
1.40525,-0.78201,-1.49638,-11.58285
1.41529,-0.76405,-1.60008,-11.36423
1.42533,-0.61516,-1.74567,-10.9626
1.43536,-0.38666,-1.67459,-10.17521
1.4454,-0.42168,-1.65305,-9.61152
1.45544,-0.51011,-1.69539,-8.83356
1.46548,-0.27788,-1.69135,-8.95446
1.47551,-0.33908,-1.71904,-9.18116
1.48555,-0.45565,-1.71604,-9.85334
1.49559,-0.61426,-1.71515,-9.93504
1.50563,-0.91952,-1.74717,-10.25122
1.51566,-0.99479,-1.77889,-10.22713
1.5257,-1.00901,-1.78757,-9.70026
1.53574,-0.826,-1.77291,-9.56469
1.54578,-0.57985,-1.59768,-9.23668
1.55581,-0.55979,-1.39372,-9.10021
1.56585,-0.82465,-1.29018,-9.45246
1.57589,-1.03055,-1.5688,-9.07358
1.58593,-0.91728,-1.86957,-8.78118
1.59596,-0.65691,-1.93287,-8.64666
1.606,-0.36571,-1.61459,-8.49747
1.61604,-0.40552,-1.46181,-8.80303
1.62608,-0.67053,-1.53872,-9.04499
1.63611,-0.92506,-1.53977,-9.24985
1.64615,-1.02113,-1.53573,-9.58938
1.65619,-1.01589,-1.52166,-9.74844
1.66623,-0.99704,-1.48785,-9.76909
1.67626,-0.96501,-1.49772,-9.55406
1.6863,-0.88645,-1.41363,-9.40652
1.69634,-0.74849,-1.21955,-9.17458
1.70638,-0.4974,-1.06168,-9.12116
1.71641,-0.27129,-0.89708,-9.31105
1.72645,-0.22191,-0.83094,-9.55885
1.73649,-0.33848,-0.91907,-9.92337
1.74653,-0.4136,-1.03819,-10.3214
1.75656,-0.43111,-1.19845,-10.43692
1.7666,-0.45475,-1.217,-10.50501
1.77664,-0.36227,-1.07275,-10.62577
1.78668,-0.25034,-0.93553,-10.54721
1.79671,-0.14934,-0.93075,-10.48047
1.80675,-0.14066,-0.94272,-10.46311
1.81679,-0.13931,-0.7449,-10.40999
1.82683,-0.16715,-0.69372,-10.42376
1.83686,-0.23119,-0.81418,-10.47194
1.8469,-0.37664,-0.89169,-10.46416
1.85694,-0.1426,-0.97369,-10.35567
1.86698,-0.14051,-1.00571,-10.18748
1.87701,-0.1643,-0.92162,-10.0151
1.88705,-0.12076,-0.88735,-9.80007
1.89709,-0.02334,-0.85473,-9.63247
1.90713,0.05492,-0.79712,-9.62574
1.91717,0.04414,-0.69327,-9.48119
1.9272,0.01466,-0.67232,-9.53266
1.93724,-0.13587,-0.62324,-9.69188
1.94728,-0.22805,-0.68444,-9.69547
1.95732,-0.2885,-0.71736,-9.78899
1.96735,-0.40657,-0.68938,-10.01614
1.97739,-0.50039,-0.6828,-10.02632
1.98743,-0.52912,-0.65646,-10.00238
1.99747,-0.5568,-0.62369,-9.83044
2.0075,-0.4344,-0.64434,-9.63801
2.01754,-0.20411,-0.74475,-9.37031
2.02758,0.01077,-0.67696,-9.19807
2.03762,0.02245,-0.60109,-9.33125
2.04765,-0.1251,-0.63372,-9.66479
2.05769,-0.23418,-0.7446,-9.87204
2.06773,-0.29314,-0.73667,-9.8059
2.07777,-0.22371,-0.55321,-9.52952
2.0878,-0.07946,-0.30885,-9.48687
2.09784,0.04474,-0.40118,-9.58638
2.10788,0.1248,-0.66424,-9.56977
2.11792,0.13692,-0.7865,-9.57486
2.12795,0.12285,-0.74011,-9.5584
2.13799,0.10759,-0.681,-9.54029
2.14803,0.17567,-0.7018,-9.56169
2.15807,0.24301,-0.8254,-9.56035
2.1681,0.27533,-0.84261,-9.42208
2.17814,0.19049,-0.63222,-9.33365
2.18818,0.01706,-0.29613,-9.34726
2.19822,0.04369,-0.29269,-9.20256
2.20825,0.12839,-0.58209,-9.23533
2.21829,0.16161,-0.70524,-9.25658
2.22833,0.28955,-0.66933,-9.24611
2.23837,0.32651,-0.54229,-9.2081
2.2484,0.26261,-0.11971,-9.18341
2.25844,0.36766,0.17912,-9.414
2.26848,0.36377,0.41928,-9.40996
2.27852,0.14231,-0.23508,-10.3232
2.28855,-0.19857,-1.16657,-10.3443
2.29859,-0.27219,-1.08801,-9.90122
2.30863,-0.14635,-0.69821,-10.08932
2.31867,-0.21189,-0.5987,-10.15201
2.3287,-0.22251,-0.67023,-10.1363
2.33874,-0.08574,-0.66933,-10.23267
2.34878,0.06345,-0.7033,-10.22564
2.35882,0.07452,-0.77871,-10.25152
2.36885,0.04384,-0.72006,-10.10488
2.37889,-0.00434,-0.68549,-9.90721
2.38893,-0.04295,-0.71931,-9.87114
2.39897,-0.00658,-0.76944,-9.96766
2.409,-0.00404,-0.73891,-9.86576
2.41904,0.07751,-0.57805,-10.05654
2.42908,0.1245,-0.62997,-10.2388
2.43912,0.11088,-0.81268,-10.16204
2.44915,-0.04639,-0.92386,-9.92741
2.45919,0.19603,-0.70674,-9.79857
2.46923,0.23254,-0.87343,-9.53027
2.47927,-0.59571,-0.48153,-9.57322
2.4893,-0.45176,-0.36616,-9.73737
2.49934,-0.27069,-1.16523,-9.72839
2.50938,0.23747,-1.58317,-9.95374
2.51942,0.80909,-1.49593,-9.65582
2.52945,1.04282,-1.37188,-9.33903
2.53949,1.27581,-1.00811,-8.83056
2.54953,1.13874,-0.82824,-8.62032
2.55957,1.06991,-0.90291,-8.94623
2.5696,0.71078,-0.93538,-9.49047
2.57964,0.34117,-0.85668,-9.931
2.58968,0.27279,-0.77452,-9.83059
2.59972,0.40612,-0.71617,-9.55212
2.60975,0.55501,-0.80715,-9.40891
2.61979,0.59137,-1.03998,-9.33529
2.62983,0.52777,-1.17121,-9.37854
2.63987,0.40701,-1.08622,-9.5593
2.6499,0.34686,-0.96142,-9.62454
2.65994,0.31888,-0.92835,-9.58085
2.66998,0.40417,-1.00377,-9.54419
2.68002,0.47645,-1.08487,-9.69771
2.69005,0.46043,-1.21042,-9.66973
2.70009,0.44188,-1.19725,-9.42044
2.71013,0.44951,-1.03669,-9.30791
2.72017,0.32397,-0.93494,-9.23294
2.7302,0.22087,-0.70225,-9.2485
2.74024,0.01571,-0.70704,-9.72839
2.75028,-0.2065,-0.81657,-9.95524
2.76032,-0.19213,-0.76644,-9.91095
2.77035,-0.04758,-0.67247,-9.78076
2.78039,0.13782,-0.71108,-9.7845
2.79043,0.11791,-0.86116,-10.04742
2.80047,0.05956,-0.78664,-10.37019
2.8105,-0.09861,-0.66693,-10.38186
2.82054,-0.23882,-0.55246,-10.47987
2.83058,-0.40492,-0.45101,-10.52566
2.84062,-0.45265,-0.40028,-10.28938
2.85065,-0.10056,-0.35928,-9.40532
2.86069,0.29524,-0.60573,-8.83475
2.87073,0.08679,-0.99718,-9.11203
2.88077,-0.2704,-1.36814,-9.82835
2.8908,-0.61142,-1.20982,-10.15351
2.90084,-0.93598,-0.90082,-10.25721
2.91088,-0.95244,-0.74714,-10.31557
2.92092,-0.82824,-0.66364,-9.97619
2.93095,-0.67561,-0.78874,-9.2895
2.94099,-0.39759,-1.12348,-8.81156
2.95103,-0.21533,-1.14817,-8.83909
2.96107,-0.31514,-0.96875,-9.1457
2.9711,-0.44008,-0.87209,-9.6428
2.98114,-0.53062,-0.79024,-9.87818
2.99118,-0.60753,-0.80834,-9.70759
3.00122,-0.6409,-0.98132,-9.6419
3.01125,-0.49066,-1.05869,-9.68619
3.02129,-0.25199,-0.87239,-9.67527
3.03133,-0.44442,-0.46941,-9.73677
3.04137,-1.12902,-0.27174,-9.36268
3.0514,-1.70512,-0.51819,-9.00803
3.06144,-1.507,-1.75749,-10.05864
3.07148,-1.24469,-2.29918,-11.28013
3.08152,-1.25666,-1.6532,-13.41486
3.09155,-0.9306,-1.0717,-12.87811
3.10159,0.19438,-1.22134,-10.72767
3.11163,-0.06,-1.08742,-8.61733
3.12167,-0.30601,-0.65033,-8.31536
3.1317,-0.58419,-0.98432,-9.23129
3.14174,-1.27626,-1.75689,-10.1158
3.15178,-1.31247,-2.31504,-11.50339
3.16182,-1.10313,-2.01966,-11.80985
3.17185,-1.60322,-2.06051,-10.20184
3.18189,-1.57643,-2.6019,-9.26691
3.19193,-1.60307,-2.5808,-8.80019
3.20197,-1.22059,-2.21105,-8.39407
3.212,-0.61696,-1.89905,-8.38704
3.22204,-0.39759,-1.76737,-8.37582
3.23208,-0.4959,-1.70796,-8.18278
3.24212,-0.75073,-2.03836,-7.91987
3.25215,-0.78575,-2.19668,-8.0915
3.26219,-0.42108,-1.99646,-8.53772
3.27223,-0.05372,-1.91297,-9.60419
3.28227,-0.02993,-1.43428,-10.18194
3.2923,0.15712,-0.93105,-10.10817
3.30234,0.35778,-0.87553,-9.47236
3.31238,0.34477,-1.07126,-9.11907
3.32242,0.32816,-1.19441,-9.08435
3.33245,0.02439,-1.38998,-9.2087
3.34249,0.17208,-0.95155,-8.97631
3.35253,0.71572,-0.5357,-9.01926
3.36257,0.63476,-1.0961,-9.18745
3.3726,0.49799,-1.38624,-8.97736
3.38264,0.33609,-1.44804,-9.3112
3.39268,0.33324,-1.24917,-9.71328
3.40272,0.59152,-0.85024,-9.79513
3.41275,0.5794,-0.78021,-9.65043
3.42279,0.38262,-1.26833,-10.16623
3.43283,0.17897,-1.57883,-10.06313
3.44287,0.05402,-0.83213,-11.05882
3.4529,0.10699,-1.06273,-10.385
3.46294,0.70524,-1.01604,-9.33484
3.47298,0.54154,-0.88286,-9.94596
3.48302,0.75462,-0.89184,-10.2382
3.49305,0.45041,-0.41315,-10.55678
3.50309,0.34147,0.208,-11.02859
3.51313,0.59361,0.1863,-10.89751
3.52317,0.45954,-0.58044,-10.36076
3.5332,0.19408,-1.2604,-10.02063
3.54324,0.03846,-1.6116,-9.82461
3.55328,0.08499,-1.61579,-9.51471
3.56332,0.27174,-1.35063,-9.33125
3.57335,0.60693,-1.04477,-9.09722
3.58339,0.9514,-0.88526,-8.77101
3.59343,1.20264,-0.99,-8.32419
3.60347,1.18693,-1.07155,-8.32015
3.6135,1.04761,-0.85757,-8.9184
3.62354,1.00856,-0.62189,-9.52638
3.63358,1.03534,-0.63596,-9.74934
3.64362,1.16089,-0.77961,-9.54838
3.65365,1.49937,-0.65736,-8.94369
3.66369,2.17558,0.15682,-8.19266
3.67373,2.35709,-0.08065,-8.16842
3.68377,2.16645,-0.83169,-8.54401
3.6938,1.64646,-0.98761,-9.25703
3.70384,1.31786,-0.90142,-10.04502
3.71388,1.41018,-0.60708,-10.32574
3.72392,1.49473,-0.41629,-10.63415
3.73395,1.48366,-0.40402,-10.65016
3.74399,1.43428,-0.52238,-10.18867
3.75403,1.4464,-0.72051,-9.84092
3.76407,1.47393,-0.70419,-9.8065
3.7741,1.70258,-0.43155,-9.98547
3.78414,1.91716,-0.14784,-10.18838
3.79418,1.99811,-0.03277,-10.11281
3.80422,1.88439,-0.1236,-10.17401
3.81425,1.6532,-0.2487,-10.3829
3.82429,1.52765,-0.34117,-10.35926
3.83433,1.55653,-0.30541,-10.12882
3.84437,1.6939,-0.22341,-9.84496
3.8544,1.81451,-0.14305,-9.44602
3.86444,1.92658,0.019,-9.39904
3.87448,1.95726,0.13378,-9.57576
3.88452,1.67968,0.0196,-9.84032
3.89455,1.40181,-0.31199,-9.98352
3.90459,1.25935,-0.41913,-9.87997
3.91463,1.3412,-0.33983,-9.69188
3.92467,1.57823,-0.23538,-9.56274
3.9347,1.71694,-0.15652,-9.41565
3.94474,1.70587,-0.19273,-9.38063
3.95478,1.60112,-0.25887,-9.51306
3.96482,1.55369,-0.19992,-9.622
3.97485,1.55548,-0.16445,-9.67706
3.98489,1.53693,-0.20321,-9.67587
3.99493,1.5284,-0.17702,-9.72779
4.00497,1.56461,-0.06539,-9.7429
4.015,1.56536,-0.03861,-9.73198
4.02504,1.52451,-0.14724,-9.69771
4.03508,1.41886,-0.29913,-9.59491
4.04512,1.37637,-0.37365,-9.44812
4.05515,1.43473,-0.34028,-9.40412
4.06519,1.53992,-0.24181,-9.40263
4.07523,1.63045,-0.14545,-9.46413
4.08527,1.73909,-0.00614,-9.58174
4.0953,1.7946,0.00015,-9.65671
4.10534,1.68597,-0.10564,-9.76086
4.11538,1.53663,-0.18136,-9.8258
4.12542,1.48815,-0.23343,-9.73213
4.13545,1.52675,-0.26246,-9.62469
4.14549,1.58047,-0.25349,-9.56005
4.15553,1.61564,-0.21787,-9.48014
4.16557,1.64212,-0.18765,-9.41849
4.1756,1.66951,-0.15996,-9.37495
4.18564,1.71081,-0.16236,-9.40203
4.19568,1.70003,-0.12614,-9.5391
4.20572,1.671,-0.03442,-9.74919
4.21575,1.55414,-0.05447,-9.91005
4.22579,1.46061,-0.13767,-9.89254
4.23583,1.51358,-0.15098,-9.75907
4.24587,1.63329,-0.13408,-9.5994
4.2559,1.68701,-0.1043,-9.39096
4.26594,1.68896,-0.11732,-9.3531
4.27598,1.62476,-0.15398,-9.42642
4.28602,1.58631,-0.18495,-9.58414
4.29605,1.57748,-0.13033,-9.71776
4.30609,1.63105,-0.10579,-9.73587
4.31613,1.6535,-0.14096,-9.65163
4.32617,1.60771,-0.22924,-9.53611
4.3362,1.4678,-0.32471,-9.4556
4.34624,1.4235,-0.38068,-9.43315
4.35628,1.45223,-0.3732,-9.44138
4.36632,1.53992,-0.30571,-9.47206
4.37635,1.67759,-0.2083,-9.42283
4.38639,1.76842,-0.1664,-9.42971
4.39643,1.77066,-0.16206,-9.54733
4.40647,1.76752,-0.15622,-9.66838
4.4165,1.74358,-0.11836,-9.74006
4.42654,1.71036,-0.12884,-9.76819
4.43658,1.68836,-0.15308,-9.75338
4.44662,1.68627,-0.14096,-9.74096
4.45665,1.72936,-0.12495,-9.69337
4.46669,1.79894,-0.08395,-9.65507
4.47673,1.86074,-0.04699,-9.59581
4.48677,1.87421,-0.06449,-9.58997
4.4968,1.82977,-0.08993,-9.6211
4.50684,1.74043,-0.13108,-9.67497
4.51688,1.693,-0.13931,-9.65537
4.52692,1.67654,-0.12659,-9.61332
4.53695,1.65813,-0.13677,-9.54404
4.54699,1.57778,-0.20934,-9.61242
4.55703,1.46839,-0.25483,-9.71283
4.56707,1.43069,-0.25528,-9.69293
4.5771,1.45837,-0.24077,-9.6618
4.58714,1.47752,-0.21204,-9.66838
4.59718,1.50266,-0.24735,-9.61676
4.60722,1.48874,-0.25274,-9.59955
4.61725,1.47677,-0.23134,-9.61182
4.62729,1.46735,-0.19857,-9.69293
4.63733,1.45702,-0.1251,-9.80007
4.64737,1.49249,-0.11971,-9.82057
4.6574,1.49757,-0.17134,-9.80545
4.66744,1.51194,-0.13123,-9.77777
4.67811,1.5088,-0.07961,-9.78929
4.68814,1.5088,-0.07961,-9.78929
4.69818,1.49712,-0.08604,-9.8261
4.70822,1.48396,-0.03202,-9.81503
4.71826,1.46301,-0.08829,-9.75592
4.72829,1.42694,-0.17597,-9.74605
4.73833,1.38624,-0.16415,-9.68948
4.74837,1.38056,-0.18331,-9.64369
4.75841,1.32744,-0.21802,-9.61003
4.76844,1.30529,-0.21473,-9.51037
4.77848,1.35482,-0.18765,-9.47221
4.78852,1.32519,-0.19124,-9.47894
4.79856,1.26878,-0.24615,-9.57292
4.80859,1.30978,-0.18375,-9.70235
4.81863,1.3834,-0.08844,-9.73198
4.82867,1.44221,-0.09307,-9.73961
4.8387,1.4853,-0.07632,-9.74126
4.84874,1.48919,-0.06045,-9.68844
4.85878,1.43368,-0.10101,-9.60943
4.86882,1.36993,-0.17163,-9.53715
4.87886,1.31965,-0.2083,-9.49974
4.88889,1.35287,-0.2059,-9.49346
4.89893,1.48919,-0.11447,-9.51112
4.90897,1.62716,-0.02379,-9.50184
4.919,1.70617,0.03546,-9.51171
4.92904,1.67534,0.03008,-9.56903
4.93908,1.58765,-0.05357,-9.60135
4.94912,1.52406,-0.10759,-9.64833
4.95916,1.51029,-0.10086,-9.64624
4.96919,1.57164,-0.08095,-9.64654
4.97923,1.6502,-0.0413,-9.67377
4.98927,1.69435,-0.01796,-9.62065
4.99931,1.73729,-0.00718,-9.61811
5.00934,1.72936,0.00404,-9.65013
5.01938,1.66696,-0.01197,-9.70145
5.02942,1.64167,-0.02933,-9.71402
5.03946,1.6294,-0.02858,-9.68814
5.04949,1.60606,-0.05133,-9.68589
5.05953,1.59873,-0.08963,-9.69741
5.06957,1.59603,-0.05626,-9.70594
5.0796,1.63374,-0.04265,-9.65282
5.08964,1.70123,-0.0217,-9.53356
5.09968,1.72861,-0.01317,-9.46203
5.10972,1.66083,-0.02708,-9.54269
5.11976,1.56671,-0.07317,-9.68634
5.12979,1.5269,-0.07093,-9.76385
5.13983,1.58586,-0.02963,-9.7432
5.14987,1.70572,0.01796,-9.66285
5.15991,1.77949,0.07617,-9.58519
5.16994,1.76932,0.03995,-9.56992
5.17998,1.63449,-0.03262,-9.64519
5.19002,1.52451,-0.09816,-9.68844
5.20006,1.51658,-0.08829,-9.63591
5.21009,1.62058,0.0015,-9.55301
5.22013,1.73744,0.07796,-9.5156
5.23017,1.79371,0.1242,-9.53775
5.24021,1.78518,0.1248,-9.62963
5.25087,1.72562,0.15293,-9.76071
5.26091,1.71574,0.18151,-9.79603
5.27095,1.74986,0.19139,-9.74635
5.28098,1.71739,0.15667,-9.72001
5.29102,1.64182,0.10968,-9.72121
5.30106,1.65335,0.05611,-9.64055
5.31109,1.74956,0.11537,-9.48717
5.32113,1.79116,0.10968,-9.43181
5.33117,1.75151,0.05626,-9.48852
5.34121,1.66771,0.05312,-9.62828
5.35125,1.63045,0.06404,-9.80336
5.36128,1.66023,0.07706,-9.84795
5.37132,1.7346,0.1236,-9.7878
5.38136,1.82872,0.17328,-9.70579
5.3914,1.80538,0.15098,-9.67093
5.40143,1.74567,0.08155,-9.66
5.41147,1.68118,0.03696,-9.66345
5.42151,1.61579,-0.00135,-9.64729
5.43155,1.62611,0.02274,-9.59401
5.44158,1.70796,0.0603,-9.54957
5.45162,1.77216,0.08455,-9.51276
5.46166,1.78473,0.11417,-9.46054
5.4717,1.76662,0.07676,-9.41206
5.48173,1.75824,0.08051,-9.395
5.49177,1.77455,0.11133,-9.38392
5.50181,1.78548,0.08574,-9.39679
5.51185,1.76138,0.0823,-9.43704
5.52188,1.76423,0.09921,-9.45949
5.53192,1.79026,0.10819,-9.4969
5.54196,1.7952,0.08095,-9.51156
5.552,1.81406,0.07542,-9.51785
5.56203,1.82079,0.04863,-9.48897
5.57207,1.83171,0.03008,-9.46353
5.58211,1.87077,0.05537,-9.41669
5.59215,1.87406,0.07796,-9.40697
5.60218,1.90294,0.05761,-9.49136
5.61222,1.95098,0.07003,-9.54164
5.62226,1.99183,0.10639,-9.56124
5.6323,2.05348,0.1245,-9.4975
5.64233,2.02325,0.08888,-9.4122
5.65237,1.96205,0.03292,-9.36297
5.66241,1.91686,0.01885,-9.37495
5.67245,1.92075,0.03786,-9.48463
5.68248,1.95277,0.06883,-9.57591
5.69252,2.00589,0.09831,-9.6226
5.70256,2.07877,0.15113,-9.57007
5.7126,2.13039,0.19049,-9.53296
5.72263,2.08729,0.15278,-9.56364
5.73267,1.95995,0.10145,-9.69397
5.74271,1.89875,0.09053,-9.74919
5.75275,1.93811,0.08859,-9.73452
5.76278,1.98913,0.15263,-9.68425
5.77282,1.9827,0.19617,-9.73467
5.78286,1.89726,0.19363,-9.84451
5.7929,1.81989,0.14784,-9.97799
5.80293,1.79236,0.13871,-9.92022
5.81297,1.82947,0.1664,-9.69293
5.82301,1.86329,0.14126,-9.52398
5.83305,1.84892,0.12016,-9.57561
5.84308,1.79475,0.13363,-9.69532
5.85312,1.74522,0.13901,-9.77223
5.86316,1.76168,0.19797,-9.8074
5.8732,1.72802,0.21488,-9.77912
5.88323,1.70033,0.20022,-9.74096
5.89327,1.68851,0.2074,-9.68859
5.90331,1.61444,0.16221,-9.65013
5.91335,1.54321,0.12944,-9.5789
5.92338,1.56925,0.15009,-9.52533
5.93342,1.6939,0.2071,-9.45889
5.94346,1.81226,0.2888,-9.43899
5.9535,1.79041,0.31843,-9.4164
5.96353,1.58167,0.23029,-9.50004
5.97357,1.3219,0.16685,-9.51366
5.98361,1.12288,0.23957,-9.3742
5.99365,0.91174,0.35314,-9.17832
6.00368,0.67277,0.44158,-9.06983
6.01372,0.27144,0.37649,-9.21094
6.02376,-0.22236,0.1667,-9.46518
6.0338,-0.71617,0.01197,-9.54074
6.04383,-1.08098,-0.16415,-9.49361
6.05387,-1.37158,-0.33235,-9.45919
6.06391,-1.67325,-0.44891,-9.77104
6.07395,-2.11827,-0.39893,-10.49214
6.08398,-2.7891,-0.39579,-11.18287
6.09402,-3.49149,-0.68893,-11.60215
6.10406,-4.1514,-0.95424,-11.61248
6.1141,-4.61213,-0.99374,-11.62954
6.12413,-4.84182,-0.8875,-11.83274
6.13417,-4.81953,-0.79667,-12.18993
6.14421,-4.69353,-0.64284,-12.46795
6.15425,-4.40129,-0.3916,-12.59515
6.16428,-4.08795,-0.14664,-12.60203
6.17432,-3.90973,0.01332,-12.65126
6.18436,-3.94295,0.03711,-12.77172
6.1944,-4.05757,-0.07123,-13.04346
6.20443,-4.20766,-0.17523,-13.28842
6.21447,-4.51576,-0.28132,-13.7101
6.22451,-4.80681,-0.34072,-14.5569
6.23455,-4.86936,-0.27593,-15.66646
6.24458,-4.49481,0.06434,-17.06063
6.25462,-3.70428,0.67921,-17.97507
6.26466,-2.58873,1.11465,-17.89082
6.2747,-1.42754,1.36993,-17.33133
6.28473,-0.25648,1.58646,-16.98013
6.29477,0.91937,1.79071,-16.98477
6.30481,1.89351,1.94828,-17.67804
6.31485,2.80496,2.12994,-18.49236
6.32488,3.73825,2.33659,-18.95445
6.33492,4.74142,2.38298,-19.06712
6.34496,5.68668,2.45241,-18.53681
6.355,6.5866,2.54713,-17.88873
6.36503,7.09327,2.63422,-17.58062
6.37507,7.29543,2.83863,-17.45852
6.38511,7.65755,3.15631,-17.25935
6.39515,8.26688,3.52816,-16.93763
6.40518,8.99861,3.90584,-16.04489
6.41522,9.87025,4.26033,-14.95194
6.42526,10.40774,4.53866,-14.00189
6.4353,10.76553,4.79544,-13.00171
6.44533,11.24706,5.01166,-11.36228
6.45537,11.33909,4.84257,-9.76535
6.46541,10.96859,4.22846,-8.69664
6.47545,10.34699,3.35458,-7.97284
6.48548,9.89209,2.72759,-7.22675
6.49552,9.52773,2.67986,-7.06963
6.50556,8.98245,3.14643,-7.2453
6.5156,8.61299,3.27602,-7.40257
6.52563,8.3218,3.3652,-6.7738
6.53567,8.0107,3.4288,-5.58268
6.54571,7.63855,3.20793,-4.55931
6.55575,7.3478,3.03495,-3.90868
6.56578,7.09641,3.16678,-3.18893
6.57582,6.8136,3.46366,-2.32597
6.58586,6.66621,3.67016,-1.9206
6.5959,6.37336,3.67929,-1.92823
6.60593,5.87911,3.63829,-1.7129
6.61597,5.05012,3.57799,-1.60845
6.62601,4.45591,3.48311,-1.67325
6.63605,3.94789,3.68423,-0.97863
6.64608,3.32106,3.71505,0.09322
6.65612,2.45286,3.34066,0.90202
6.66616,1.36036,2.82247,1.22164
6.6762,0.20336,2.65517,1.07724
6.68623,-0.91653,2.59995,0.55186
6.69627,-1.73191,2.4373,-0.22401
6.70631,-2.00305,2.33001,-0.64075
6.71635,-2.08206,2.36487,-1.00586
6.72638,-2.36308,2.24307,-1.11899
6.73642,-2.90402,1.99557,-0.7431
6.74646,-3.7559,1.91222,-0.23523
6.7565,-4.97141,1.70362,-0.23673
6.76653,-5.99329,1.26623,-1.22134
6.77657,-6.39985,0.73382,-2.30651
6.78661,-6.50819,0.36078,-2.74959
6.79665,-6.71648,0.02753,-2.50553
6.80668,-6.83425,-0.40148,-2.26207
6.81672,-7.32895,-0.61396,-2.07502
6.82676,-8.75664,-0.71811,-2.36248
6.8368,-10.02482,-0.79772,-3.23921
6.84683,-10.81985,-0.95708,-4.91515
6.85687,-11.11583,-0.94975,-6.37112
6.86691,-10.91936,-0.38158,-6.79265
6.87695,-10.59943,0.15862,-7.00259
6.88698,-10.1767,0.62608,-7.55505
6.89702,-9.41939,1.4051,-8.03015
6.90706,-8.60252,2.18546,-8.35591
6.9171,-7.64244,2.96986,-8.60461
6.92713,-7.58573,3.57963,-9.03078
6.93717,-8.94579,3.41323,-8.82772
6.94721,-10.6753,2.65876,-8.33556
6.95725,-11.31619,2.7659,-9.33754
6.96728,-10.27876,4.05862,-11.79354
6.97732,-8.78133,5.55709,-14.25837
6.98736,-7.22076,7.30067,-15.5656
6.9974,-5.36122,9.17578,-15.79993
7.00743,-3.97183,10.02976,-15.82717
7.01747,-4.23953,9.68559,-15.78437
7.02751,-4.60929,8.60985,-16.37679
7.03755,-4.28802,8.27481,-18.10824
7.04758,-3.66627,9.00115,-20.40683
7.05762,-2.13967,9.70041,-22.34209
7.06766,-0.02873,9.69233,-23.63421
7.0777,1.13141,9.13403,-24.16947
7.08773,1.39717,8.51258,-23.21942
7.09777,1.59439,7.73836,-21.51459
7.10781,2.41979,7.32267,-20.02091
7.11785,3.83102,7.23812,-19.31253
7.12788,5.00598,6.96309,-18.78895
7.13792,5.76868,6.52689,-17.37981
7.14796,6.16208,5.9656,-15.50096
7.158,6.21056,5.26485,-14.12953
7.16803,6.13335,4.64655,-13.1919
7.17807,5.89378,3.94564,-12.40975
7.18811,5.33249,3.24055,-11.54095
7.19815,4.81713,2.67357,-10.80758
7.20819,4.7281,2.46169,-10.52356
7.21822,4.88148,2.74375,-10.47762
7.22826,5.2243,3.03899,-10.37901
7.2383,5.3871,3.11022,-10.35522
7.24834,5.15711,3.05814,-10.01016
7.25837,4.62156,2.74944,-9.47655
7.26841,3.94145,2.28197,-9.10724
7.27845,3.34111,1.86553,-8.85705
7.28849,3.01235,1.71021,-8.76173
7.29852,3.08762,2.09343,-8.80647
7.30856,3.43628,2.72281,-8.79675
7.3186,3.59938,3.20314,-8.91032
7.32864,3.2832,3.30924,-9.16994
7.33867,2.68465,3.22185,-9.48972
7.34871,1.99497,3.07505,-9.69846
7.35875,1.43398,2.90402,-9.75757
7.36879,1.15341,2.98377,-9.74246
7.37882,1.12393,3.12743,-9.56798
7.38886,1.36544,3.1798,-9.42223
7.3989,1.56805,3.23382,-9.15348
7.40894,1.46765,3.178,-8.40245
7.41897,1.24603,3.07386,-7.78071
7.42901,1.20593,3.03151,-7.83293
7.43905,1.18558,3.10558,-8.33841
7.44909,1.27865,3.29098,-8.88234
7.45912,1.54935,3.38974,-9.01477
7.46916,1.63045,3.23098,-8.72357
7.4792,1.32609,2.87588,-8.28888
7.48924,0.91877,2.55087,-8.02282
7.49927,0.80086,2.45406,-8.11874
7.50931,1.02651,2.63153,-8.51124
7.51935,1.5287,2.74136,-8.9413
7.52939,1.76887,2.67896,-9.07971
7.53942,1.64601,2.38717,-8.97317
7.54946,1.53693,2.18142,-8.66387
7.5595,1.46001,2.01711,-8.26194
7.56954,1.46061,1.95531,-8.08387
7.57957,1.62836,2.06754,-8.46964
7.58961,1.78592,2.21209,-8.94833
7.59965,1.85685,2.20326,-9.24192
7.60969,1.80837,2.10151,-9.25464
7.61972,1.66427,2.08086,-9.0001
7.62976,1.45283,1.99512,-8.61284
7.6398,1.47692,1.93915,-8.53727
7.64984,1.68627,2.13832,-8.61149
7.65987,1.78114,2.34018,-8.76158
7.66991,1.8356,2.39809,-8.94264
7.67995,1.879,2.41365,-9.40921
7.68999,1.83964,2.43026,-9.64759
7.70002,1.72457,2.3345,-9.53476
7.71006,1.5471,2.17379,-9.24985
7.7201,1.31876,2.10301,-9.14645
7.73014,1.22209,2.11468,-9.13942
7.74017,1.27252,2.15897,-9.20092
7.75021,1.39687,2.21119,-9.33664
7.76025,1.56042,2.26237,-9.4158
7.77029,1.51299,2.24621,-9.31584
7.78032,1.39477,2.17633,-9.1665
7.79036,1.30978,2.16615,-9.05726
7.8004,1.28868,2.29245,-9.05801
7.81044,1.30514,2.37505,-9.11413
7.82047,1.24573,2.3517,-9.27918
7.83051,1.20159,2.30472,-9.40637
7.84055,1.29212,2.27105,-9.45066
7.85059,1.31457,2.34961,-9.30267
7.86062,1.31636,2.39824,-9.19987
7.87066,1.25621,2.36712,-9.31734
7.8807,1.16298,2.31609,-9.56558
7.89074,1.09191,2.29783,-9.65956
7.90077,1.13485,2.28826,-9.63367
7.91081,1.17989,2.24576,-9.48807
7.92085,1.18453,2.18785,-9.3118
7.93089,1.17166,2.09538,-9.09946
7.94092,1.10552,2.01607,-9.01118
7.95096,1.0723,2.01637,-9.05412
7.961,1.09505,2.08101,-9.13238
7.97104,1.07245,2.07757,-9.37719
7.98107,1.13036,2.13264,-9.82102
7.99111,1.2788,2.2691,-9.97439
8.00115,1.38983,2.28616,-9.85229
8.01119,1.43083,2.23319,-9.57636
8.02122,1.34479,2.15837,-9.46054
8.03126,1.23242,2.13278,-9.5379
8.0413,1.23451,2.15553,-9.67048
8.05134,1.39776,2.20401,-9.70684
8.06137,1.51718,2.20671,-9.7465
8.07141,1.59244,2.17573,-9.78525
8.08145,1.47169,2.11169,-9.67512
8.09149,1.32265,2.02505,-9.50513
8.10152,1.31591,2.01861,-9.43794
8.11156,1.4256,2.13144,-9.4975
8.1216,1.56536,2.25863,-9.59252
8.13164,1.67534,2.23544,-9.71672
8.14167,1.72562,2.1482,-9.71582
8.15171,1.65185,2.0662,-9.43764
8.16175,1.57134,1.91566,-9.07597
8.17179,1.44834,1.84608,-8.87336
8.18182,1.27372,1.89351,-8.92199
8.19186,1.22808,1.94439,-9.25868
8.2019,1.22344,1.94304,-9.71432
8.21194,1.19785,1.90115,-10.18837
8.22197,1.30185,1.99437,-10.3241
8.23201,1.41587,2.13308,-9.9114
8.24205,1.41812,2.12411,-9.33709
8.25209,1.18274,2.04525,-8.93307
8.26213,0.92641,1.97177,-8.8973
8.27216,0.91982,2.00784,-9.09737
8.2822,1.18573,2.11064,-9.20885
8.29224,1.47288,2.17259,-9.08121
8.30228,1.49009,2.15718,-8.83894
8.31231,1.28643,2.06979,-8.6926
8.32235,1.02173,2.00694,-8.52949
8.33239,0.84545,2.09508,-8.55777
8.34243,0.70689,2.07188,-8.74692
8.35246,0.52583,1.80179,-8.85241
8.3625,0.58808,1.67474,-8.84298
8.37254,0.79532,1.77291,-8.76158
8.38258,0.99329,1.98494,-8.71385
8.39261,1.15685,2.20192,-8.82533
8.40265,1.26878,2.2088,-9.10395
8.41269,1.06961,2.0626,-9.34592
8.42273,0.78709,1.94424,-9.48104
8.43276,0.74041,1.82363,-9.78735
8.4428,0.95813,1.89262,-10.20873
8.45284,1.33088,2.16047,-10.54601
8.46288,1.70303,2.4373,-10.80084
8.47291,1.92928,2.61013,-10.89676
8.48295,2.03358,2.59995,-10.79546
8.49299,2.01053,2.46977,-10.6328
8.50303,1.90668,2.32806,-10.322
8.51306,1.93347,2.29245,-9.95389
8.5231,2.03896,2.2908,-9.5394
8.53314,2.01756,2.22107,-9.40308
8.54318,1.81286,2.05153,-9.51201
8.55321,1.65993,1.92958,-9.51201
8.56325,1.66996,1.94888,-9.3528
8.57329,1.73864,1.93422,-9.31898
8.58333,1.7117,1.89696,-9.46144
8.59336,1.68477,1.87391,-9.40398
8.6034,1.67444,1.838,-9.29758
8.61344,1.49293,1.81585,-9.17054
8.62348,1.3626,1.79191,-9.07462
8.63351,1.44056,1.86523,-9.15707
8.64355,1.56252,2.01547,-9.42073
8.65359,1.76438,2.15643,-9.69996
8.66363,1.89815,2.21179,-9.7221
8.67366,1.84219,2.14386,-9.51336
8.68433,1.64048,1.98569,-9.31135
8.69437,1.50042,1.94664,-9.19358
8.7044,1.49877,1.93856,-9.1659
8.71444,1.62073,1.99572,-9.15992
8.72448,1.68342,2.07547,-9.15887
8.73452,1.65828,2.02789,-9.12819
8.74455,1.57808,1.99452,-9.05981
8.75459,1.4458,1.9182,-9.03796
8.76463,1.28479,1.78802,-9.01686
8.77467,1.18648,1.6933,-8.92439
8.7847,1.22598,1.66023,-8.67075
8.79474,1.3433,1.69809,-8.41756
8.80478,1.43128,1.72996,-8.32374
8.81482,1.32729,1.7566,-8.5675
8.82485,1.02173,1.73909,-9.06564
8.83489,0.95229,1.84339,-9.67123
8.84493,1.18393,2.10884,-10.14573
8.85497,1.42799,2.24022,-10.4875
8.865,1.53783,2.29409,-10.67006
8.87504,1.43083,2.27165,-10.51219
8.88508,1.22718,2.19458,-10.14603
8.89512,1.10881,2.10585,-9.93998
8.90515,1.30215,2.16915,-9.86621
8.91519,1.66023,2.30083,-9.84556
8.92523,1.85805,2.29918,-9.90795
8.93527,1.82707,2.17693,-9.846
8.9453,1.57883,2.01517,-9.74994
8.95534,1.25067,1.88094,-9.52937
8.96538,1.10178,1.7964,-9.26002
8.97542,1.2188,1.78982,-9.13972
8.98545,1.35452,1.82842,-9.14196
8.99549,1.38894,1.88603,-9.37016
9.00553,1.41722,1.84772,-9.5388
9.01557,1.39028,1.81241,-9.51171
9.0256,1.3834,1.85296,-9.35325
9.03564,1.29586,1.84728,-9.24341
9.04568,1.23885,1.79086,-9.17323
9.05572,1.30065,1.80523,-8.99516
9.06575,1.36036,1.82932,-8.8792
9.07579,1.40435,1.78413,-8.85645
9.08583,1.47782,1.88723,-8.9172
9.09587,1.51493,2.03567,-9.10994
9.1059,1.51747,2.15673,-9.22905
9.11594,1.59574,2.19623,-9.39545
9.12598,1.66951,2.26985,-9.47475
9.13602,1.55728,2.28556,-9.44333
9.14605,1.37128,2.19743,-9.38961
9.15609,1.20039,2.20027,-9.20301
9.16613,0.98791,2.18621,-9.00684
9.17617,0.69641,2.13054,-8.85406
9.1862,0.41315,2.20925,-8.76143
9.19624,0.25289,2.38148,-8.83565
9.20628,0.07632,2.40513,-8.83356
9.21632,-0.21712,2.39959,-8.64367
9.22635,-0.70419,2.35934,-8.53114
9.23639,-1.4036,2.26102,-8.55284
9.24643,-2.20745,1.88065,-8.64591
9.25647,-3.08134,1.29152,-8.83999
9.2665,-3.72867,0.92521,-8.76547
9.27654,-3.96704,0.73233,-8.65399
9.28658,-3.90794,0.62743,-8.56211
9.29662,-3.66014,0.84725,-8.43148
9.30665,-3.67226,1.157,-8.56915
9.31669,-3.99607,1.1974,-9.31075
9.32673,-4.50364,1.13126,-10.56022
9.33677,-4.88687,1.37532,-11.88691
9.3468,-5.13481,1.68881,-13.22542
9.35747,-5.21083,2.15807,-14.3082
9.36751,-5.11536,2.47141,-14.5548
9.37754,-5.09486,2.55027,-14.5352
9.38758,-5.3871,2.52439,-14.7001
9.39762,-5.82809,2.52035,-14.99354
9.40766,-6.12257,2.52199,-15.795
9.41769,-6.10297,2.74839,-17.2595
9.42773,-5.54243,3.30624,-18.85404
9.43777,-4.52773,3.92874,-20.12731
9.44781,-3.39782,4.53477,-21.10668
9.45784,-2.46603,5.13377,-21.78664
9.46788,-1.63763,5.55141,-22.67085
9.47792,-0.62384,6.02276,-23.5163
9.48796,0.73951,6.82961,-23.85014
9.49799,2.28482,7.59276,-23.53306
9.50803,3.62587,8.12098,-23.15672
9.51807,4.57457,8.66192,-22.52764
9.52811,5.37633,9.11607,-21.22714
9.53814,6.30393,9.27394,-20.00266
9.54818,7.32506,9.5159,-19.05904
9.55822,8.22558,9.98068,-18.09208
9.56826,9.16934,10.42735,-17.22254
9.57829,10.22743,10.89721,-16.16116
9.58833,11.4169,11.25454,-14.97259
9.59837,12.54951,11.28522,-13.87395
9.60841,13.39376,11.36124,-12.76199
9.61844,13.89176,11.36468,-11.26577
9.62848,13.90867,11.19604,-9.66
9.63852,13.67254,11.01602,-8.47577
9.64856,13.2525,10.66288,-7.71546
9.65859,12.75197,10.17551,-6.59468
9.66863,12.26325,9.48388,-5.47404
9.67867,11.65437,8.84927,-4.9117
9.68871,10.92639,8.57678,-4.9973
9.69874,9.8487,8.21959,-4.85275
9.70878,8.61748,7.72414,-3.87187
9.71882,7.88171,7.40736,-2.69827
9.72886,7.3686,7.05347,-1.5269
9.73889,6.71214,6.55712,-0.60304
9.74893,5.8628,6.15639,0.21368
9.75897,4.94881,5.78753,1.33267
9.76901,4.07433,5.15576,2.23274
9.77904,3.6112,4.59477,2.74555
9.78908,3.56556,4.69802,3.08508
9.79912,3.70009,4.9539,3.52157
9.80916,3.65699,5.17163,3.90464
9.81919,3.25716,5.18494,3.49673
9.82923,2.84252,5.05222,2.40318
9.83927,2.36068,5.42062,1.55279
9.84931,1.5706,5.83048,1.12917
9.85934,0.77183,5.87148,1.61624
9.86938,-0.16385,5.84859,2.43415
9.87942,-1.14563,5.89617,2.63272
9.88946,-2.13189,6.17988,2.80331
9.8995,-3.42416,6.08382,2.021
9.90953,-4.99341,5.36181,-0.15173
9.91957,-6.57373,4.71942,-2.37729
9.92961,-7.72639,4.30073,-3.6139
9.93965,-8.2389,4.14616,-3.48611
9.94968,-8.76667,4.3356,-3.17292
9.95972,-10.43004,3.93816,-4.28293
9.96976,-12.78115,2.52708,-6.2348
9.9798,-14.74409,0.8037,-7.72863
9.98983,-16.22072,-0.52044,-8.80812
9.99987,-16.5592,-1.12857,-9.11772
10.00991,-15.56964,-0.73921,-8.70711
10.01995,-14.12564,0.1227,-8.09105
10.02998,-13.00096,0.8245,-7.44417
10.04002,-12.58991,1.11974,-7.6812
10.05006,-12.69032,1.19815,-8.54625
10.0601,-12.89158,1.11375,-9.9087
10.07013,-12.85477,1.23436,-10.11745
10.08017,-12.39104,1.54097,-10.5285
10.09021,-11.83933,1.69749,-12.42336
10.10025,-10.84439,2.03432,-13.79509
10.11028,-9.7878,2.54593,-13.77938
10.12032,-8.9196,3.27482,-12.87332
10.13036,-7.40033,3.29188,-12.29123
10.1404,-5.95228,2.65322,-13.194
10.15043,-5.29882,2.96522,-15.92129
10.16047,-4.03453,3.90599,-18.36667
10.17051,-2.0216,5.27443,-19.43583
10.18055,0.12001,7.06334,-20.86262
10.19058,2.58619,8.68527,-23.21717
10.20062,4.3546,10.0148,-25.64504
10.21066,5.36122,10.37497,-27.00914
10.2207,5.86355,9.5578,-26.51863
10.23073,5.5755,8.41412,-25.58998
10.24077,5.07825,7.44417,-24.40619
10.25081,5.12359,6.77469,-22.41048
10.26085,5.62652,6.46255,-19.82803
10.27088,6.03399,5.80729,-17.59798
10.28092,5.74698,4.57173,-16.13138
10.29096,4.64056,3.19431,-14.66583
10.301,3.34754,1.86508,-12.83412
10.31103,2.24965,0.83722,-10.68023
10.32107,1.58691,0.04983,-8.77415
10.33111,1.27581,-0.29957,-7.5766
10.34115,1.07679,-0.33683,-6.96054
10.35118,0.78934,-0.31798,-6.3792
10.36122,0.63297,-0.31588,-5.99942
10.37126,0.46014,-0.12719,-5.91592
10.3813,0.12929,0.17687,-6.69509
10.39133,-0.14994,0.60379,-8.16228
10.40137,-0.17687,1.1157,-9.40876
10.41141,-0.16056,1.54845,-10.21217
10.42145,-0.19064,1.96384,-10.51503
10.43148,-0.15712,2.13533,-10.27876
10.44152,0.0223,2.18606,-9.72899
10.45156,0.22461,2.27135,-9.48762
10.4616,0.35614,2.28197,-9.76744
10.47163,0.44816,2.28931,-10.20139
10.48167,0.48737,2.35545,-10.50037
10.49171,0.47824,2.36742,-10.40744
10.50175,0.57206,2.41904,-10.07136
10.51178,0.75462,2.35964,-10.1791
10.52182,0.72709,2.21329,-10.36091
10.53186,0.65736,2.06709,-9.97664
10.5419,0.71781,1.99751,-9.48658
10.55193,0.94661,2.0026,-8.99412
10.56197,1.04327,1.85132,-8.64531
10.57201,0.90217,1.70063,-8.75126
10.58205,0.49111,1.60965,-9.05098
10.59208,-0.02379,1.33926,-9.24745
10.60212,-0.31214,1.13066,-9.24461
10.61216,-0.10939,1.26504,-8.89042
10.6222,0.43754,1.485,-8.62287
10.63223,0.74594,1.69854,-8.54057
10.64227,0.8251,1.8187,-8.47891
10.65231,0.77063,1.84728,-8.48954
10.66235,0.56713,1.81331,-8.81515
10.67238,0.35569,1.70153,-9.44617
10.68242,0.22999,1.64197,-9.81697
10.69246,0.28132,1.65439,-9.80037
10.7025,0.52628,1.59813,-9.38662
10.71253,0.9068,1.61085,-8.89206
10.72257,1.17361,1.79834,-8.76128
10.73261,1.22643,1.8178,-8.99502
10.74265,1.113,1.75914,-9.26302
10.75268,1.01469,1.76348,-9.46144
10.76272,1.16313,1.84279,-9.50827
10.77276,1.28449,1.91027,-9.55945
10.7828,1.14787,1.84713,-9.6618
10.79284,0.72125,1.55758,-9.74679
10.80287,0.42243,1.35931,-9.58818
10.81291,0.52238,1.39118,-9.38198
10.82295,0.81897,1.40136,-9.26182
10.83299,0.93853,1.38011,-9.16231
10.84302,0.83842,1.39747,-9.11817
10.85306,0.77093,1.49308,-8.97706
10.8631,0.7844,1.53289,-8.95162
10.87314,0.71078,1.40614,-9.25
10.88317,0.68399,1.31666,-9.59551
10.89321,0.74056,1.37906,-9.99459
10.90325,0.80056,1.45433,-10.24524
10.91329,0.87807,1.5055,-10.32784
10.92332,0.88615,1.47019,-10.21935
10.93336,0.86057,1.36589,-9.80291
10.9434,0.81508,1.23511,-9.42522
10.95344,0.62878,1.14832,-9.48672
10.96347,0.41659,1.12378,-9.71567
10.97351,0.454,1.14069,-9.9087
10.98355,0.64494,1.29362,-10.08138
10.99359,0.82525,1.46241,-10.10577
11.00362,0.88526,1.53917,-9.96152
11.01366,0.76285,1.44804,-9.69292
11.0237,0.50233,1.36784,-9.58324
11.03374,0.41988,1.3231,-9.63472
11.04377,0.49156,1.39462,-9.91155
11.05381,0.50967,1.45927,-10.25631
11.06385,0.57685,1.4874,-10.28908
11.07389,0.5589,1.53139,-9.94611
11.08392,0.45146,1.43039,-9.51186
11.09396,0.37948,1.28973,-9.30312
11.104,0.25468,1.2194,-9.23324
11.11404,0.21293,1.21835,-9.4969
11.12407,0.38696,1.34644,-9.74365
11.13411,0.56982,1.45882,-9.7429
11.14415,0.58658,1.47543,-9.54014
11.15419,0.49425,1.48411,-9.43585
11.16422,0.44308,1.41647,-9.36013
11.17426,0.37664,1.34719,-9.25449
11.1843,0.35674,1.3608,-9.25733
11.19434,0.53406,1.41378,-9.32182
11.20437,0.68384,1.46795,-9.46188
11.21441,0.79547,1.49742,-9.66883
11.22445,0.89932,1.56147,-9.69622
11.23449,0.93224,1.67519,-9.59012
11.24452,0.85204,1.68013,-9.52788
11.25456,0.83917,1.61683,-9.62918
11.2646,0.89124,1.57329,-9.85139
11.27464,0.88092,1.47707,-9.91259
11.28467,0.97354,1.41662,-9.86561
11.29471,1.00916,1.3201,-9.73617
11.30475,0.80101,1.11675,-9.62574
11.31479,0.53585,0.92641,-9.42567
11.32482,0.33369,0.84201,-9.10709
11.33486,0.09756,0.71856,-8.95387
11.3449,-0.05252,0.7006,-8.88024
11.35494,0.0431,0.86042,-8.8768
11.36497,0.30541,1.08592,-9.28606
11.37501,0.6593,1.40719,-9.83792
11.38505,0.82809,1.57658,-10.19032
11.39509,0.75013,1.57464,-10.31766
11.40513,0.62982,1.50446,-10.00312
11.41516,0.56174,1.39492,-9.44468
11.4252,0.64763,1.31696,-9.13208
11.43524,0.81897,1.31068,-9.12804
11.44528,0.98327,1.343,-9.43704
11.45531,1.07859,1.43682,-9.89718
11.46535,0.98776,1.53259,-10.2617
11.47539,0.83213,1.54486,-10.38754
11.48543,0.74804,1.50446,-10.30674
11.49546,0.82989,1.59888,-10.13196
11.5055,0.99135,1.64826,-10.28729
11.51554,1.04881,1.63255,-10.70059
11.52558,0.88122,1.57509,-10.72842
11.53561,0.60543,1.4226,-10.12987
11.54565,0.41689,1.28763,-9.26451
11.55569,0.37634,1.18259,-8.64187
11.56573,0.38427,1.09385,-8.5868
11.57576,0.3922,1.24858,-9.4363
11.5858,0.60558,1.49817,-10.23297
11.59584,0.90621,1.64093,-10.42914
11.60588,0.93149,1.65813,-10.12179
11.61591,0.73966,1.58167,-9.38961
11.62595,0.51251,1.4859,-8.71654
11.63599,0.26411,1.3014,-8.68362
11.64603,0.12076,1.26354,-9.33394
11.65606,0.33653,1.46241,-9.94013
11.6661,0.77108,1.63793,-10.344
11.67614,0.8896,1.75001,-10.41373
11.68618,0.74011,1.7147,-10.04338
11.69621,0.62429,1.5914,-9.36133
11.70625,0.48288,1.45642,-9.07148
11.71629,0.39025,1.35048,-9.29474
11.72633,0.44233,1.40061,-9.74201
11.73636,0.44547,1.47977,-9.92022
11.7464,0.43589,1.44206,-9.64579
11.75644,0.40567,1.32354,-9.15318
11.76648,0.24301,1.14218,-8.88189
11.77651,-0.01107,1.02756,-8.79525
11.78655,-0.03038,1.09639,-8.85855
11.79659,0.17313,1.25187,-9.27723
11.80663,0.44547,1.46316,-9.69936
11.81666,0.67591,1.52855,-9.94402
11.8267,0.64988,1.48171,-9.90242
11.83674,0.38816,1.44026,-9.54808
11.84678,0.03352,1.29676,-9.0652
11.85681,-0.07227,1.14084,-8.74796
11.86685,0.06195,1.11884,-8.61239
11.87689,0.13632,1.08577,-8.80198
11.88693,-0.08918,0.82824,-8.83281
11.89696,-0.70584,0.36826,-8.37192
11.907,-1.35706,0.05207,-7.71801
11.91704,-1.79206,0.02469,-6.88887
11.92708,-1.59828,0.28431,-5.84245
11.93711,-1.23481,0.75866,-5.08274
11.94715,-1.81585,1.06961,-5.22205
11.95719,-3.14134,0.96516,-5.79382
11.96723,-4.82043,0.76031,-6.45222
11.97726,-5.95049,0.91219,-7.39748
11.9873,-6.16103,1.67669,-8.75709
11.99734,-5.9249,2.50044,-10.45907
12.00738,-5.48661,3.1391,-11.96218
12.01742,-5.10249,3.64787,-12.76005
12.02745,-4.50828,3.89596,-12.88125
12.03749,-4.55512,3.97512,-12.28151
12.04753,-5.72229,3.17576,-11.93046
12.05757,-7.63705,1.75749,-12.11421
12.0676,-9.75473,0.77378,-12.66114
12.07764,-11.03099,0.29972,-13.36309
12.08768,-10.71375,0.65122,-13.94488
12.09772,-9.73961,1.57164,-15.38275
12.10775,-9.09512,2.62958,-17.33282
12.11779,-8.24234,3.44152,-19.00622
12.12783,-7.67776,4.11384,-20.8936
12.13787,-7.25563,4.79319,-23.02893
12.1479,-6.56625,5.30031,-24.8765
12.15794,-5.50262,6.31426,-26.54975
12.16798,-3.5922,7.5748,-27.56295
12.17802,-1.3846,8.32688,-27.46658
12.18805,0.44158,8.99457,-27.20501
12.19809,1.68926,9.66689,-26.53105
12.20813,2.71592,10.29013,-25.14271
12.21817,4.19195,11.10341,-23.97509
12.2282,5.90231,12.2221,-23.52258
12.23824,7.5561,13.10736,-23.23453
12.24828,8.91541,13.77265,-22.4006
12.25832,10.12104,14.04035,-20.66929
12.26835,11.08964,14.12788,-18.64544
12.27839,11.64091,14.33064,-16.70614
12.28843,12.45673,14.4104,-14.71252
12.29847,13.20836,14.18265,-13.03583
12.3085,13.75364,14.05681,-12.05076
12.31854,14.01311,13.9365,-11.64495
12.32858,13.52844,13.56689,-11.23868
12.33862,12.41513,12.94799,-9.45859
12.34865,11.89784,12.22809,-6.84622
12.35869,11.98777,12.14399,-4.63592
12.36873,12.08982,12.4075,-2.54668
12.37877,12.17915,12.58796,0.0018
12.3888,12.45898,12.66054,1.71036
12.39884,12.83397,12.84833,2.35724
12.40888,13.00351,12.96041,2.75064
12.41892,12.21267,13.07503,2.36173
12.42895,10.41448,12.87153,2.24591
12.43899,8.52665,12.09491,3.56377
12.44903,6.4832,11.39026,4.86382
12.45907,4.40653,10.32993,6.17105
12.4691,2.67941,8.84209,6.73938
12.47914,1.26115,7.38626,5.26036
12.48918,0.30721,6.31725,3.56347
12.49922,-0.20306,5.34506,3.52965
12.50925,-0.81208,4.75279,4.98428
12.51929,-2.34482,4.22128,7.51809
12.52933,-4.18372,3.51199,9.63083
12.53937,-5.23492,2.83982,9.2072
12.5494,-6.05284,2.3948,6.5426
12.55944,-6.29585,2.2097,4.0483
12.56948,-5.80459,2.31878,3.33572
12.57952,-4.86577,3.06697,3.73196
12.58955,-4.44364,4.51113,4.10276
12.59959,-5.79651,5.59854,2.65502
12.60963,-8.79675,4.97425,-1.00886
12.61967,-10.77376,3.39528,-4.01059
12.62971,-10.64372,2.48533,-5.14319
12.63974,-9.50393,2.32073,-4.84706
12.64978,-8.3824,2.37849,-3.52232
12.65982,-8.09375,2.37565,-2.07682
12.66985,-10.47957,2.83848,-0.34746
12.68052,-12.77336,1.86733,-3.05755
12.69056,-12.77337,1.86733,-3.05755
12.70059,-14.87293,1.39672,-7.01696
12.71063,-14.79736,2.19279,-10.76268
12.72067,-12.80614,3.9006,-13.63722
12.73071,-10.32978,5.29433,-15.423
12.74074,-8.68916,5.88659,-14.73766
12.75078,-8.54341,5.99044,-12.02368
12.76082,-9.57651,5.54213,-10.89242
12.77086,-11.02066,4.68964,-12.43623
12.7809,-11.95589,4.04441,-14.84196
12.79093,-11.27699,4.12027,-16.53032
12.80097,-9.64998,4.47282,-18.13518
12.81101,-8.15525,5.17941,-18.60265
12.82104,-7.40452,5.96725,-18.51466
12.83108,-7.69811,6.42469,-19.09765
12.84112,-7.70454,6.56026,-19.4294
12.85116,-6.30333,6.6891,-19.0369
12.86119,-4.95211,6.63583,-20.15978
12.87123,-4.58639,6.17928,-23.35648
12.88127,-4.2524,5.23522,-25.2892
12.89131,-4.04845,5.08678,-25.18012
12.90135,-3.78463,5.56278,-23.78744
12.91138,-2.38537,6.03563,-21.62937
12.92142,-1.05943,5.94869,-20.02346
12.93146,-1.14458,5.00972,-19.45798
12.9415,-2.45346,3.42027,-19.41653
12.95153,-4.28098,2.23409,-18.1042
12.96157,-5.29657,1.58287,-15.96528
12.97161,-4.80816,1.69435,-14.44167
12.98165,-3.33318,2.50673,-13.35965
12.99168,-1.6927,3.04722,-13.36683
13.00172,-1.29092,3.10678,-13.47517
13.01176,-2.60654,3.12862,-12.98795
13.0218,-3.75067,3.12054,-12.78234
13.03183,-3.60986,3.87472,-11.99929
13.04187,-1.68716,4.64251,-11.1281
13.05191,1.7967,5.39069,-10.14797
13.06195,5.08813,6.31501,-8.80258
13.07198,7.8039,7.09881,-7.24575
13.08202,9.7875,7.66788,-5.38576
13.09206,10.72034,7.63391,-5.03441
13.1021,10.69176,7.18216,-6.34104
13.11213,9.84705,6.69568,-8.28633
13.12217,8.59683,5.90111,-10.19526
13.13221,7.10868,4.9343,-10.68218
13.14225,5.37349,3.87023,-9.48777
13.15228,3.7981,3.10318,-8.51243
13.16232,3.14015,2.69063,-9.7459
13.17236,3.25402,2.8479,-11.74116
13.1824,3.37104,2.88561,-12.00647
13.19243,3.32435,2.52184,-11.01946
13.20247,3.14254,2.58469,-10.15351
13.21251,2.86376,2.79134,-9.85349
13.22255,2.46184,2.62823,-9.69726
13.23258,1.59783,2.31011,-9.578
13.24262,0.85757,1.88573,-9.61272
13.25266,0.63012,1.60816,-9.37644
13.2627,0.65062,1.78353,-8.78268
13.27273,0.85338,2.1063,-7.87692
13.28277,0.85353,2.17783,-7.39614
13.29281,0.49425,2.06066,-7.58723
13.30285,-0.17642,1.70063,-7.93827
13.31288,-0.77722,1.45538,-8.08522
13.32292,-0.75432,1.67594,-8.4454
13.33296,-0.15233,2.17274,-8.70876
13.343,0.34895,2.50089,-9.01507
13.35303,0.07242,2.49416,-9.19014
13.3637,-0.65032,2.05273,-9.13418
13.37374,-0.9722,1.8389,-8.82607
13.38377,-0.85039,1.857,-8.5904
13.39381,-0.65496,1.72353,-8.90404
13.40385,-0.57326,1.61205,-9.25149
13.41389,-0.56758,1.47692,-8.9413
13.42392,-0.49754,1.47408,-8.45557
13.43396,-0.39175,1.56955,-8.31177
13.444,-0.30242,1.65619,-8.63095
13.45404,-0.34746,1.70123,-9.3314
13.46408,-0.4754,1.54635,-9.83299
13.47411,-0.53899,1.50191,-9.82535
13.48415,-0.34147,1.5272,-9.37779
13.49419,-0.13976,1.59349,-8.69993
13.50423,0.00823,1.64048,-8.56645
13.51426,-0.19139,1.51867,-9.01881
13.5243,-0.6186,1.31816,-9.49914
13.53434,-0.67891,1.20413,-9.89972
13.54438,-0.42213,1.30439,-9.93249
13.55441,-0.04983,1.49817,-9.41624
13.56445,0.1637,1.62132,-8.7556
13.57449,-0.04325,1.59888,-8.4662
13.58453,-0.24705,1.57464,-8.87231
13.59456,-0.4112,1.56132,-9.45261
13.6046,-0.56174,1.42126,-9.72196
13.61464,-0.51715,1.42036,-9.44094
13.62468,-0.30631,1.4871,-9.15453
13.63471,-0.1019,1.59618,-8.95446
13.64475,-0.17567,1.5676,-8.97062
13.65479,-0.38188,1.47243,-8.99397
13.66483,-0.41061,1.38744,-9.26885
13.67486,-0.43799,1.32549,-9.65417
13.6849,-0.35704,1.42066,-9.91708
13.69494,-0.17463,1.62058,-10.19975
13.70498,0.03921,1.81944,-10.28325
13.71501,0.25842,1.95157,-10.24658
13.72505,0.38756,1.92239,-10.50486
13.73509,0.28117,1.74163,-10.60167
13.74513,0.25438,1.66966,-10.4043
13.75516,0.43141,1.74717,-10.13466
13.7652,0.59421,1.87286,-9.89404
13.77524,0.61905,1.93347,-9.50932
13.78528,0.53271,1.87526,-9.11682
13.79531,0.47944,1.82229,-9.14316
13.80535,0.3931,1.74088,-9.64355
13.81539,0.31768,1.6936,-9.81653
13.82543,0.38457,1.77276,-9.73303
13.83546,0.41884,1.9426,-9.58519
13.8455,0.3515,1.95935,-9.41654
13.85554,0.2903,1.93407,-9.48912
13.86558,0.32232,2.03612,-9.70116
13.87561,0.42347,2.01173,-9.90706
13.88565,0.51939,1.92973,-9.94596
13.89569,0.53675,1.96893,-9.75024
13.90573,0.5149,2.05123,-9.60643
13.91576,0.40447,1.97926,-9.45934
13.9258,0.27249,1.84787,-9.34996
13.93584,0.17762,1.7976,-9.21394
13.94588,0.08559,1.62327,-9.34891
13.95591,-0.05581,1.49862,-9.50573
13.96595,-0.12435,1.51628,-9.47505
13.97599,-0.06898,1.58736,-9.39949
13.98603,-0.15742,1.53364,-9.27319
13.99606,-0.39729,1.42066,-9.11996
14.0061,-0.56294,1.37442,-9.14405
14.01614,-0.36556,1.53423,-9.36028
14.02618,-0.07676,1.76812,-9.56184
14.03622,-0.06689,1.80568,-9.71328
14.04625,-0.20381,1.70707,-10.01315
14.05629,-0.43934,1.53034,-10.14932
14.06633,-0.6213,1.44191,-10.04158
14.07636,-0.66993,1.40001,-9.97335
14.0864,-0.52179,1.46585,-9.88686
14.09644,-0.34072,1.62432,-9.85169
14.10648,-0.32397,1.70033,-10.11445
14.11652,-0.36003,1.69988,-10.20364
14.12655,-0.36586,1.68477,-10.31033
14.13659,-0.30556,1.78996,-10.26858
14.14663,-0.25798,1.92988,-10.00073
14.15667,-0.1845,1.95457,-9.56454
14.1667,-0.10744,1.98255,-9.15887
14.17674,-0.05058,2.02624,-9.04799
14.18678,-0.03247,2.05497,-9.2265
14.19682,0.07392,2.11154,-9.30432
14.20685,0.07108,2.12949,-9.19628
14.21689,-0.10804,2.11019,-8.87965
14.22693,-0.30885,2.09478,-8.51902
14.23697,-0.61411,2.06679,-8.38404
14.247,-0.83453,1.99602,-8.48445
14.25704,-0.66798,2.06231,-8.76472
14.26708,-0.29434,2.23439,-8.96284
14.27712,-0.0196,2.45421,-8.78852
14.28715,-0.31424,2.26686,-8.45123
14.29719,-1.16657,1.66202,-7.92735
14.30723,-2.01622,1.15161,-7.03102
14.31727,-2.48787,1.0934,-6.37516
14.3273,-2.10959,1.34659,-6.32787
14.33734,-1.31846,2.03013,-6.72337
14.34738,-0.80311,2.75004,-7.49221
14.35742,-0.92222,2.97465,-8.20508
14.36745,-1.77291,2.70066,-8.66372
14.37749,-3.28769,2.19339,-9.30506
14.38753,-4.70176,1.58287,-10.05325
14.39757,-5.41987,1.1133,-10.56112
14.4076,-5.82315,0.97668,-10.85187
14.41764,-6.19964,1.02158,-11.10416
14.42768,-6.66441,0.96666,-11.31709
14.43772,-7.42038,0.72006,-11.98717
14.44775,-8.36564,0.40866,-13.18113
14.45779,-8.9416,0.09442,-14.56453
14.46783,-9.0414,0.20964,-15.6295
14.47787,-8.72642,0.68549,-16.23807
14.4879,-8.1132,1.03669,-16.42198
14.49794,-7.63496,1.45582,-16.64075
14.50798,-6.98194,1.79625,-17.30708
14.51802,-6.32413,1.9839,-18.11812
14.52805,-5.97653,2.24277,-18.80107
14.53809,-5.51849,2.43011,-19.01849
14.54813,-4.8535,2.73792,-18.70784
14.55817,-4.06341,3.12024,-18.68285
14.5682,-3.1391,3.62288,-18.92557
14.57824,-2.39824,3.99473,-19.19716
14.58828,-1.76692,4.08196,-19.53953
14.59832,-0.845,4.51442,-19.89237
14.60836,0.43934,5.27936,-19.87606
14.61839,2.13368,6.2146,-19.59445
14.62843,3.62078,6.91056,-19.84165
14.63847,4.63338,7.25473,-20.73962
14.64851,4.96168,7.26176,-21.05281
14.65854,4.80801,6.70945,-20.54719
14.66858,4.84706,6.44549,-19.29592
14.67862,5.4724,6.73145,-17.84503
14.68866,6.16043,6.94543,-16.77063
14.69869,6.92867,6.89859,-15.92398
14.70873,7.72998,6.9167,-14.90495
14.71877,8.25655,6.87271,-13.82592
14.72881,8.28918,6.55098,-12.60906
14.73884,7.97269,6.15474,-11.10999
14.74888,7.40661,5.58507,-9.59102
14.75892,7.11691,5.00328,-8.28169
14.76896,7.28376,4.76042,-7.26326
14.77899,7.81991,4.61662,-6.78023
14.78903,8.33826,4.46279,-6.65139
14.79907,8.37716,4.54973,-6.21969
14.80911,8.28349,4.42134,-5.42661
14.81914,8.10871,4.14257,-4.75055
14.82918,7.99214,4.01178,-4.44035
14.83922,7.55056,3.81995,-4.28891
14.84926,6.80013,3.30415,-3.38121
14.85929,6.05883,2.5814,-2.28003
14.86933,5.13616,1.76258,-1.67145
14.87937,4.34084,1.08981,-1.22927
14.88941,3.75815,0.91099,-0.83543
14.89944,3.5099,1.03819,-0.05761
14.90948,4.1906,0.95409,0.47285
14.91952,5.09815,1.27596,-0.10639
14.92956,5.59121,2.02445,-1.0132
14.93959,5.80519,2.31923,-0.94346
14.94963,5.45279,2.09822,-0.51146
14.95967,4.39127,2.14715,-0.07302
14.96971,3.66208,2.49132,-0.22146
14.97974,3.7761,2.7873,-1.05854
14.98978,4.16202,3.2,-1.99108
14.99982,3.95776,3.36864,-1.89845
15.00986,2.39226,2.67223,-1.1757
15.01989,0.56668,1.86643,-0.13632
15.02993,-0.47106,1.19171,0.65152
15.03997,-1.06617,0.75223,0.6626
15.05001,-0.96426,0.78275,0.07183
15.06004,-0.43335,1.29407,-0.19677
15.07008,-0.71721,1.43098,-0.49515
15.08012,-1.82872,0.9297,-0.90486
15.09016,-2.57003,0.23388,-1.16238
15.1002,-2.94337,-0.02559,-1.29003
15.11023,-3.45259,0.10325,-1.04537
15.12027,-4.06102,-0.07317,-1.71949
15.13031,-4.63143,-0.08918,-2.77638
15.14035,-5.2834,0.3295,-3.88714
15.15038,-5.78394,0.94511,-5.10878
15.16042,-5.70448,1.73969,-5.85068
15.17046,-5.41778,2.59457,-6.27161
15.1805,-5.25632,3.13027,-6.23704
15.19053,-5.6792,3.01999,-6.23585
15.20057,-6.54335,2.58918,-6.56655
15.21061,-7.68629,2.28362,-7.70813
15.22065,-8.52126,2.3523,-9.03213
15.23068,-8.77894,2.58245,-10.12044
15.24072,-8.88324,2.78999,-10.92355
15.25076,-8.82458,3.23277,-11.46284
15.2608,-8.66327,3.36355,-12.78354
15.27083,-9.07417,3.04647,-14.35878
15.28087,-9.29698,2.68644,-14.65416
15.29091,-8.72103,2.17827,-13.503
15.30095,-8.03434,1.75615,-11.88093
15.31098,-7.73088,1.81271,-10.48107
15.32102,-8.04586,1.78263,-10.49274
15.33106,-8.84268,1.49832,-11.91415
15.3411,-9.02539,1.51104,-13.71025
15.35113,-8.04557,1.76438,-16.05507
15.36117,-6.57642,2.38448,-18.4361
15.37121,-5.42062,3.31627,-19.65879
15.38125,-4.72541,4.27335,-20.16771
15.39128,-4.35939,5.15427,-20.23804
15.40132,-3.02986,5.85771,-19.52681
15.41136,-1.2806,5.77975,-19.47249
15.4214,-0.6002,5.2665,-20.19045
15.43143,-0.10624,4.60974,-20.45621
15.44147,0.68684,3.74004,-19.12997
15.45151,0.96337,2.86855,-17.64467
15.46155,0.96412,2.49775,-16.77886
15.47158,1.18094,2.37325,-16.10924
15.48162,1.91671,2.39719,-15.35057
15.49166,2.67148,2.79508,-15.48076
15.5017,2.72086,3.26,-16.88615
15.51173,2.64963,3.31193,-18.51915
15.52177,2.55297,2.99934,-18.69527
15.53181,2.04525,2.51541,-17.06722
15.54185,1.23406,2.12441,-14.74783
15.55188,0.7437,2.06515,-12.61415
15.56192,0.82854,2.06231,-11.76077
15.57196,1.27761,2.06829,-11.82571
15.582,1.65589,2.18336,-12.0159
15.59203,1.51762,2.31459,-11.29135
15.60207,1.45223,2.49506,-9.91678
15.61211,1.64512,2.84626,-9.25284
15.62215,1.73969,3.37238,-9.06475
15.63219,1.65305,3.68468,-8.9166
15.64222,1.34345,3.34066,-9.39979
15.65226,0.66349,2.75363,-9.86037
15.6623,0.13153,2.49386,-9.79797
15.67234,0.61381,2.69572,-9.34726
15.68237,1.633,3.22993,-8.92035
15.69241,2.44897,3.75082,-8.73914
15.70245,2.61626,3.81711,-8.6501
15.71248,2.1051,3.39139,-8.44345
15.72252,1.47737,2.77802,-8.53922
15.73256,1.16014,2.49012,-8.87201
15.7426,1.30005,2.53785,-8.92259
15.75264,1.80553,2.77638,-8.70607
15.76267,2.45226,3.27871,-8.67719
15.77271,3.10244,3.86634,-9.10231
15.78275,3.76383,4.21215,-9.99729
15.79279,4.39141,4.27829,-10.76074
15.80282,4.49377,4.01448,-10.7781
15.81286,3.89312,3.3046,-10.01255
15.8229,2.97839,2.4777,-8.81261
15.83294,2.1482,1.94454,-7.80151
15.84297,1.62866,1.57134,-7.13278
15.85301,1.55608,1.27716,-7.19966
15.86305,1.53902,1.28314,-7.74674
15.87309,1.5067,1.39253,-8.13415
15.88312,1.35332,1.33686,-8.18548
15.89316,0.97893,1.13665,-8.23979
15.9032,0.74714,0.99359,-8.197
15.91324,0.69447,1.04941,-7.73761
15.92327,0.57356,1.11809,-7.42741
15.93331,0.3304,1.07754,-7.46482
15.94335,0.24765,1.02397,-7.929
15.95339,0.07766,1.09595,-8.44914
15.96342,0.00763,1.05928,-8.81291
15.97346,0.31648,1.18348,-9.06789
15.9835,0.50952,1.425,-9.19478
15.99354,0.40926,1.46914,-9.16815
16.00357,0.58119,1.53004,-9.30641
16.01361,0.74145,1.72487,-9.82655
16.02365,0.71093,1.71515,-10.41493
16.03369,0.703,1.63524,-10.6108
16.04372,0.45146,1.54007,-10.48391
16.05376,0.13093,1.37756,-10.55888
16.0638,0.31199,1.47752,-10.90619
16.07384,1.0756,1.816,-11.49621
16.08388,1.95187,2.22436,-11.79533
16.09391,2.42353,2.47097,-11.61412
16.10395,2.2513,2.17798,-11.3129
16.11399,1.66906,1.62102,-10.91442
16.12403,1.2595,1.41093,-10.26963
16.13406,1.16089,1.48635,-9.54164
16.1441,0.90606,1.50012,-8.6513
16.15414,0.5987,1.1977,-8.2386
16.16417,0.48333,1.03729,-8.23231
16.17421,0.50772,1.09475,-8.30638
16.18425,0.53645,1.13306,-8.24129
16.19429,0.50563,1.21117,-7.8051
16.20433,0.39444,1.10373,-7.55131
16.21436,0.16161,0.8239,-7.93588
16.2244,0.19109,0.78335,-8.65145
16.23444,0.43425,0.98342,-9.11293
16.24448,0.48722,1.14862,-9.34113
16.25451,0.39145,1.18199,-9.46129
16.26455,0.66035,1.41288,-9.7863
16.27459,0.94601,1.68701,-10.11595
16.28463,1.02068,1.69569,-10.52775
16.29466,0.77737,1.43757,-10.52641
16.3047,0.29,1.08368,-10.24733
16.31474,0.10684,0.96097,-10.03545
16.32478,0.46911,1.20054,-9.83089
16.33481,0.90785,1.35123,-9.57711
16.34485,1.06273,1.41168,-9.52548
16.35489,1.1365,1.37427,-9.6199
16.36493,1.17944,1.33941,-9.69278
16.37496,1.27686,1.44236,-9.61781
16.385,1.39133,1.53394,-9.6217
16.39504,1.32399,1.51897,-9.82595
16.40508,1.10178,1.4265,-9.86157
16.41511,1.03878,1.24005,-10.07525
16.42515,1.01604,1.2182,-10.56307
16.43519,0.96621,1.25546,-10.66886
16.44523,1.12153,1.27401,-10.50366
16.45526,1.25785,1.25681,-10.1354
16.4653,1.13844,1.13201,-9.58474
16.47534,0.78156,0.91907,-9.21319
16.48538,0.51475,0.72724,-9.16276
16.49541,0.39534,0.69237,-9.15348
16.50545,0.29942,0.62788,-9.1451
16.51549,0.23882,0.55141,-9.2916
16.52553,0.2255,0.64868,-9.26152
16.53556,0.28192,0.75612,-9.02015
16.5456,0.46822,0.88511,-8.71534
16.55564,0.49964,0.98506,-8.66701
16.56568,0.38202,0.9282,-9.03452
16.57572,0.16894,0.87179,-9.37016
16.58575,0.07003,0.90845,-9.81847
16.59579,0.09577,1.04223,-10.23087
16.60583,0.31184,1.11136,-10.37303
16.61587,0.58299,1.20728,-10.24225
16.6259,0.83393,1.30559,-10.02542
16.63594,0.94751,1.25591,-9.67018
16.64598,0.85608,1.16822,-9.47086
16.65602,0.76031,1.07365,-9.60524
16.66605,0.84276,1.03549,-9.70086
16.67609,0.87254,1.08457,-9.60688
16.68676,0.88271,1.08293,-9.44423
16.69679,0.9309,1.17645,-9.30746
16.70683,0.89004,1.18663,-9.28172
16.71687,0.9704,1.19785,-9.51156
16.72691,1.06198,1.3225,-9.77433
16.73694,1.07844,1.33836,-9.84406
16.74698,1.01769,1.26354,-9.61437
16.75702,0.93269,1.21027,-9.36118
16.76706,0.85802,1.1549,-9.46353
16.77709,0.84336,1.15565,-9.71103
16.78713,0.7642,1.23376,-9.8068
16.79717,0.69746,1.18588,-9.96586
16.80721,0.62025,1.14847,-9.94566
16.81724,0.58044,1.12034,-9.71043
16.82728,0.54423,1.00437,-9.43001
16.83732,0.53151,0.91773,-9.17697
16.84736,0.59062,0.99973,-9.1879
16.85739,0.5378,1.05899,-9.1662
16.86743,0.31304,0.95319,-9.13388
16.87747,0.17089,0.87448,-9.13642
16.88751,0.10909,1.00123,-9.10485
16.89754,0.1025,1.11929,-9.0848
16.90758,0.19513,1.1986,-9.03437
16.91762,0.27144,1.31636,-9.04395
16.92766,0.13946,1.38086,-8.95342
16.93769,-0.14156,1.40614,-8.74153
16.94773,-0.51116,1.34075,-8.24443
16.95777,-0.96426,1.2381,-8.02177
16.96781,-1.43278,1.15116,-7.95803
16.97784,-1.67489,1.10373,-8.10048
16.98788,-2.00664,1.14323,-8.2787
16.99792,-2.54593,1.09954,-8.62436
17.00796,-3.33782,0.85039,-9.32512
17.01799,-4.3986,0.65451,-9.9105
17.02803,-5.4305,0.52493,-10.12134
17.03807,-6.29675,0.32382,-10.18613
17.04811,-7.27718,0.00299,-10.29971
17.05814,-8.36788,-0.55695,-10.57309
17.06818,-9.19942,-0.83288,-10.96694
17.07822,-9.42657,-0.58015,-11.44638
17.08826,-8.93561,-0.15278,-11.83978
17.09829,-8.37492,0.38951,-12.283
17.10833,-8.13146,0.74699,-13.18232
17.11837,-7.92226,1.13111,-14.11457
17.12841,-7.40467,1.69869,-14.77701
17.13844,-6.70631,2.13234,-15.65853
17.14848,-6.24707,2.41126,-16.86715
17.15852,-5.96904,2.60235,-18.38777
17.16856,-5.64029,2.92347,-19.73391
17.17859,-5.0564,3.37148,-20.77524
17.18863,-4.25913,3.76159,-21.01765
17.19867,-3.34335,3.96136,-21.09052
17.20871,-2.35515,4.10785,-21.44067
17.21874,-1.35572,4.36089,-21.90605
17.22878,-0.46657,4.48748,-21.94211
17.23882,0.29673,4.52369,-21.77167
17.24886,0.98536,4.8704,-21.60902
17.2589,1.82902,5.38321,-21.38486
17.26893,2.5796,5.83347,-21.37947
17.27897,3.405,6.34763,-21.72723
17.28901,4.25794,6.92388,-21.56023
17.29905,5.11057,7.47515,-20.59013
17.30908,5.93014,7.79253,-19.25252
17.31912,6.58914,7.90565,-17.85745
17.32916,7.25443,7.9501,-16.51894
17.3392,7.91418,7.92346,-15.21366
17.34923,8.53727,7.4334,-13.15045
17.3599,8.53727,7.4334,-13.15045
17.36994,8.57005,7.23618,-12.37533
17.37997,8.58366,7.0626,-11.42034
17.39001,8.59833,6.82243,-10.38171
17.40005,8.56571,6.54829,-9.26317
17.41009,8.46305,6.14921,-8.17306
17.42012,8.26957,5.71122,-7.14295
17.43016,7.93962,5.22415,-6.3593
17.4402,7.57675,4.75219,-5.37648
17.45024,7.27792,4.30956,-3.99083
17.46027,6.78532,3.6959,-2.82246
17.47031,6.32114,3.13177,-2.41425
17.48035,5.83706,2.81483,-2.64529
17.49039,5.26679,2.60145,-3.2223
17.50042,4.91515,2.55536,-3.26659
17.51046,4.7052,2.43221,-3.1177
17.5205,4.53567,2.24711,-2.7059
17.53054,4.39336,1.97851,-2.24142
17.54057,4.26602,1.82708,-1.83426
17.55061,4.08675,1.74956,-1.52137
17.56065,3.63814,1.50146,-1.35706
17.57069,2.91629,1.40779,-1.00078
17.58072,2.30741,1.38834,-1.0744
17.59076,1.96863,1.3813,-1.403
17.6008,1.9824,1.31277,-1.384
17.61084,2.17723,1.24154,-1.16987
17.62087,2.30577,1.34105,-1.1169
17.63091,2.50823,1.26459,-0.90396
17.64095,2.68255,1.27566,-0.38232
17.65099,2.40318,1.198,-0.50952
17.66102,1.74672,0.48572,-1.0735
17.67106,0.9508,-0.21009,-1.3418
17.6811,0.5164,-0.49919,-1.51418
17.69114,0.46627,-0.70225,-1.76064
17.70117,-0.01466,-0.90231,-1.66891
17.71121,-1.11106,-1.30619,-2.67387
17.72125,-2.6646,-2.34587,-4.65373
17.73129,-3.94924,-3.55344,-6.19485
17.74132,-4.78197,-4.19075,-6.88767
17.75136,-5.2023,-4.57083,-6.86507
17.7614,-5.15187,-4.63667,-5.6174
17.77144,-4.63517,-4.28951,-5.34565
17.78147,-4.57577,-3.94505,-6.59408
17.79151,-4.94702,-3.94714,-7.42472
17.80155,-5.45639,-4.04545,-7.10898
17.81159,-5.85741,-3.77221,-6.6487
17.82162,-5.66154,-3.1364,-6.27775
17.83166,-4.92143,-2.27075,-6.01573
17.8417,-4.11892,-1.46959,-5.77496
17.85174,-3.90419,-1.24079,-6.12287
17.86178,-4.17983,-1.40914,-7.13367
17.87181,-4.45396,-1.35736,-7.5754
17.88185,-4.42867,-1.21191,-7.43639
17.89189,-4.13449,-0.84785,-6.46075
17.90193,-4.18761,-0.50233,-5.34595
17.91196,-4.63413,-0.36586,-4.68246
17.922,-4.96647,-0.15173,-4.31001
17.93204,-5.3681,0.22012,-4.25255
17.94208,-5.73815,0.51326,-5.15606
17.95211,-5.92311,0.8667,-6.35316
17.96215,-6.33027,1.08831,-7.37235
17.97219,-6.61144,1.31876,-8.30429
17.98223,-7.04913,1.45178,-9.11532
17.99226,-7.3089,1.08547,-9.69472
18.0023,-6.99825,0.96022,-10.33697
18.01234,-6.64556,1.36544,-11.03577
18.02238,-6.31665,1.51538,-11.55472
18.03241,-6.14502,1.40959,-12.11885
18.04245,-6.51402,1.61414,-13.46768
18.05249,-6.772,2.06769,-15.19181
18.06253,-5.99044,2.8075,-15.9804
18.07256,-5.44067,3.22304,-16.19049
18.0826,-5.52208,3.00802,-16.75986
18.09264,-5.46387,2.89459,-17.43173
18.10268,-5.00448,2.58903,-17.97821
18.11271,-4.14451,2.76904,-18.2287
18.12275,-4.04874,3.30759,-18.68869
18.13279,-4.68336,3.37074,-18.89833
18.14283,-4.4993,3.38226,-18.91434
18.15286,-3.39707,4.10755,-18.806
18.1629,-2.16735,4.65627,-17.43188
18.17294,-0.89558,4.60585,-16.3084
18.18298,-0.38068,4.61093,-16.78635
18.19301,-0.71168,4.66974,-17.65858
18.20305,-1.3403,4.28772,-17.24738
18.21309,-1.7973,3.72613,-16.32023
18.22313,-1.73056,3.44585,-15.55707
18.23316,-0.89034,3.81396,-14.46173
18.2432,-0.09248,4.15948,-12.81736
18.25324,0.38247,3.8602,-11.90711
18.26328,0.98521,3.57574,-11.356
18.27331,1.70901,3.75037,-11.22955
18.28335,2.03492,3.90868,-11.96652
18.29339,1.94978,3.7996,-12.23063
18.30343,2.02983,3.62542,-12.12918
18.31346,2.24082,3.64622,-11.42289
18.3235,2.16975,3.55344,-10.78528
18.33354,1.84084,3.21362,-10.97038
18.34358,1.87391,3.1171,-10.94883
18.35361,2.1458,3.10558,-10.88688
18.36365,2.31968,2.99589,-10.71226
18.37369,2.36008,2.83578,-10.42151
18.38373,2.11363,2.66774,-9.92561
18.39377,1.83097,2.38717,-9.2488
18.4038,1.73759,2.29784,-8.74512
18.41384,1.43188,2.20955,-8.61928
18.42388,1.26908,2.11722,-8.83595
18.43392,1.50027,2.21045,-9.23608
18.44395,2.00425,2.52065,-9.47505
18.45399,2.31325,2.71398,-9.51216
18.46403,2.26851,2.70814,-9.23473
18.47407,2.2085,2.69767,-8.84822
18.4841,1.93721,2.78266,-8.76293
18.49414,1.19605,2.55536,-9.62514
18.50418,1.09265,2.49715,-9.6823
18.51422,2.04525,3.04423,-9.11308
18.52425,3.2838,3.66852,-9.21678
18.53429,3.88908,4.01807,-9.55975
18.54433,3.59878,3.95193,-9.78316
18.55437,2.83863,3.56377,-9.56678
18.5644,2.20371,3.13356,-9.18491
18.57444,1.77336,2.82037,-8.91975
18.58448,1.40899,2.5407,-8.80587
18.59452,1.32325,2.38837,-8.62362
18.60455,1.30589,2.39121,-8.58321
18.61459,1.2182,2.27733,-8.90134
18.62463,1.16777,2.17603,-9.12879
18.63467,1.01933,2.18351,-8.98095
18.6447,0.71841,1.99736,-8.63035
18.65474,0.57371,1.78099,-8.32883
18.66478,0.66768,1.78129,-8.33601
18.67482,0.73502,1.88843,-8.79944
18.68485,0.79921,2.04151,-9.15618
18.69489,1.02696,2.13503,-8.97811
18.70493,1.11734,2.09927,-8.94459
18.71497,1.04926,2.10839,-9.09033
18.725,0.79562,2.16166,-8.9799
18.73504,0.3717,2.02564,-9.21573
18.74508,0.22176,1.89052,-9.76146
18.75512,0.34536,2.00903,-9.87488
18.76515,0.51565,2.09912,-9.82027
18.77519,0.53451,2.10076,-9.67676
18.78523,0.48348,2.01293,-9.48538
18.79527,0.34746,1.87316,-9.37584
18.8053,0.20111,1.77829,-9.38871
18.81534,-0.02304,1.71155,-9.63352
18.82538,-0.28207,1.57838,-9.62619
18.83542,-0.22146,1.53408,-9.10784
18.84545,0.06868,1.73879,-8.92484
18.85549,0.34417,1.8781,-9.25539
18.86553,0.4356,1.97866,-9.66479
18.87557,0.40821,1.95083,-9.91364
18.88561,0.30242,1.94005,-10.08902
18.89564,0.2466,1.9836,-9.83673
18.90568,0.26441,1.8772,-9.20645
18.91572,0.38981,1.82244,-9.07313
18.92576,0.43949,1.83022,-9.28217
18.93579,0.44981,1.82378,-9.46757
18.94583,0.29045,1.73206,-9.54508
18.95587,-0.07542,1.48036,-9.5183
18.96591,-0.20411,1.35901,-9.12475
18.97594,-0.10849,1.40854,-8.84942
18.98598,-0.04848,1.35123,-9.00444
18.99602,0.07676,1.37442,-9.22007
19.00606,0.25094,1.46106,-9.52773
19.01609,0.36377,1.54845,-9.65342
19.02613,0.35988,1.60007,-9.56783
19.03617,0.17104,1.65589,-9.41909
19.04621,0.34836,1.76991,-9.36178
19.05624,0.80595,1.93466,-9.69233
19.06628,1.0524,2.13398,-9.93205
19.07632,1.14982,2.19877,-10.03215
19.08636,1.10642,2.17708,-9.93055
19.09639,1.11211,2.21269,-9.73183
19.10643,1.13814,2.23469,-9.71148
19.11647,1.10672,2.14431,-9.68694
19.12651,1.05973,2.08445,-9.56304
19.13654,0.94496,1.99856,-9.57845
19.14658,0.61351,1.92389,-9.68829
19.15662,0.47809,1.82184,-9.81608
19.16666,0.81986,1.95786,-9.69741
19.17669,1.16089,2.13189,-9.581
19.18673,1.18782,2.09657,-9.73138
19.19677,0.99674,1.97462,-9.8258
19.20681,0.72215,1.8175,-9.73617
19.21684,0.54393,1.69061,-9.51531
19.22688,0.54648,1.64212,-9.49481
19.23692,0.55815,1.60771,-9.42208
19.24696,0.5577,1.54246,-9.32422
19.25699,0.49321,1.47932,-9.40547
19.26703,0.39744,1.45642,-9.47745
19.27707,0.43051,1.37412,-9.62679
19.28711,0.55156,1.38026,-9.59147
19.29715,0.55785,1.34509,-9.46099
19.30718,0.44532,1.16927,-9.53027
19.31722,0.28865,1.03684,-9.48403
19.32726,0.27907,1.06228,-9.30447
19.3373,0.3114,1.10373,-9.18476
19.34733,0.31184,1.11734,-9.25239
19.35737,0.28895,1.18663,-9.53117
19.36741,0.35,1.30394,-9.75398
19.37745,0.56952,1.47737,-9.7239
19.38748,0.82375,1.66322,-9.63127
19.39752,0.94511,1.8169,-9.64429
19.40756,0.76255,1.78682,-9.6208
19.4176,0.45924,1.66936,-9.60973
19.42763,0.30421,1.65649,-9.34891
19.43767,0.46807,1.79954,-9.08704
19.44771,0.76809,2.01622,-9.07732
19.45775,0.98282,2.20072,-9.34232
19.46778,1.09385,2.30068,-9.49017
19.47782,0.91653,2.36517,-9.47101
19.48786,0.50727,2.21613,-9.45051
19.4979,0.08065,2.02145,-9.37061
19.50793,-0.14051,1.98419,-9.23713
19.51797,0.01631,2.20461,-9.30432
19.52801,0.26531,2.52274,-9.22276
19.53805,0.31559,2.85643,-9.11473
19.54808,0.06928,3.19147,-9.01267
19.55812,-0.38502,3.57813,-8.87291
19.56816,-0.82091,3.84464,-8.41921
19.5782,-1.34988,3.68109,-7.81722
19.58823,-2.80002,3.46845,-7.38073
19.59827,-5.60049,2.54519,-8.61778
19.60831,-8.06412,1.24154,-9.97993
19.61835,-9.24671,0.34731,-9.78346
19.62838,-9.39081,0.23703,-8.37656
19.63842,-9.37644,0.46418,-6.38848
19.64846,-9.60643,0.37155,-5.5336
19.6585,-9.65267,0.38517,-5.924
19.66853,-9.73692,0.75447,-6.97401
19.67857,-10.00836,0.6816,-8.38075
19.68861,-10.23102,0.53241,-9.78046
19.69865,-10.013,0.91174,-10.81341
19.70869,-9.62634,1.39313,-11.59437
19.71872,-9.17084,1.90369,-12.32296
19.72876,-8.49223,2.40737,-13.43955
19.7388,-7.61581,2.89145,-14.98067
19.74884,-6.40658,3.594,-16.32322
19.75887,-5.18704,4.21903,-17.35258
19.76891,-4.31001,4.20272,-17.85386
19.77895,-3.99443,3.75097,-17.9821
19.78899,-3.85841,2.99934,-17.98001
19.79902,-3.50691,2.42622,-19.23621
19.80906,-3.60178,2.33973,-21.83841
19.8191,-4.14541,2.14506,-23.58079
19.82914,-3.97946,1.74388,-23.65561
19.83917,-3.04333,1.69689,-23.15358
19.84921,-1.97447,2.21419,-22.92628
19.85925,-1.17391,2.65113,-22.88124
19.86929,-1.01664,2.72744,-23.0798
19.87932,-1.15475,2.59187,-23.18665
19.88936,-1.20413,2.42173,-23.14819
19.8994,-0.91548,2.54399,-22.89036
19.90944,-0.20964,3.08403,-22.33206
19.91947,0.848,3.799,-21.57969
19.92951,1.7551,4.37675,-21.15187
19.93955,2.38896,4.65298,-21.20634
19.94959,3.18818,5.16534,-20.34637
19.95962,4.16367,5.54452,-18.79269
19.96966,4.99071,5.5529,-16.92611
19.9797,5.50277,5.33129,-15.14333
19.98974,5.5966,4.97036,-13.59547
19.99977,5.32605,4.51307,-12.20609
20.00981,5.08738,4.11578,-11.47331
20.01985,5.02558,4.01986,-11.11673
20.02989,5.02453,4.07209,-10.27277
20.03992,5.09755,3.97946,-8.88458
20.04996,5.19931,3.84524,-6.89904
20.06,5.24839,3.70847,-4.83659
20.07004,5.16325,3.68842,-3.80693
20.08007,5.01705,3.80064,-3.8394
20.09011,5.25423,3.91168,-4.05982
20.10015,6.10417,4.1285,-3.83027
20.11019,7.08474,4.06745,-4.15035
20.12022,7.18754,3.85392,-4.34428
20.13026,6.59154,3.4692,-5.2023
20.1403,5.79681,3.29188,-6.00256
20.15034,4.58804,3.06967,-5.79157
20.16038,3.6546,2.90731,-5.25692
20.17041,3.38061,3.04557,-4.12955
20.18045,3.35293,2.97495,-2.88396
20.19049,3.08687,2.28512,-1.94903
20.20053,2.25474,1.10403,-1.57913
20.21056,1.86703,0.03202,-1.59454
20.2206,1.83725,-0.02963,-0.9282
20.23064,1.50535,0.11911,-0.34192
20.24068,1.57808,0.02694,-0.01811
20.25071,1.76692,-0.08245,-0.12061
20.26075,1.72861,-0.31469,-0.75417
20.27079,1.51523,-0.54977,-1.29541
20.28083,1.48141,-0.77467,-1.43637
20.29086,1.46211,-0.88122,-1.60666
20.3009,1.27476,-0.78006,-1.89696
20.31094,0.89573,-1.14922,-2.17408
20.32098,0.46403,-1.5893,-3.02492
20.33101,0.27982,-1.5088,-3.47369
20.34105,0.12136,-1.2399,-3.50646
20.35109,-0.05701,-1.18857,-3.32495
20.36113,-0.2677,-1.27656,-2.86511
20.37116,-0.89723,-1.50954,-3.2612
20.3812,-1.71724,-1.73699,-4.17848
20.39124,-2.32926,-1.76303,-4.65807
20.40128,-2.76231,-1.75226,-4.78541
20.41131,-3.12024,-1.56057,-4.43915
20.42135,-3.50391,-1.15281,-4.01777
20.43139,-4.26213,-0.92072,-4.38468
20.44143,-5.1402,-0.9502,-5.24495
20.45146,-5.4284,-1.29122,-6.01797
20.4615,-5.36855,-1.5703,-6.38564
20.47154,-5.18794,-1.5465,-6.68057
20.48158,-5.11297,-1.33956,-7.0177
20.49161,-5.19272,-0.92192,-6.74836
20.50165,-5.76988,-0.6825,-6.19814
20.51169,-6.46853,-0.8257,-5.79307
20.52173,-7.38551,-1.18932,-6.13619
20.53176,-8.22797,-1.45328,-7.21178
20.5418,-8.70203,-1.54112,-8.05828
20.55184,-8.67943,-1.52316,-8.53039
20.56188,-8.32643,-1.37502,-9.07462
20.57191,-7.79732,-1.20773,-9.53072
20.58195,-7.00573,-0.89917,-9.27604
20.59199,-6.17345,-0.67965,-8.752
20.60203,-5.7172,-0.76929,-8.71908
20.61207,-5.61351,-0.86595,-8.92753
20.6221,-5.72678,-0.7428,-8.58456
20.63214,-5.73621,-0.50592,-7.60653
20.64218,-5.72409,-0.28386,-7.23079
20.65222,-5.69655,-0.27818,-7.76814
20.66225,-4.93146,-0.29389,-8.60671
20.67229,-3.58232,0.64165,-9.70983
20.68296,-2.98602,2.48144,-12.40137
20.69299,-2.98602,2.48144,-12.40137
20.70303,-4.83763,2.20715,-12.46541
20.71307,-6.60874,1.47154,-11.62145
20.72311,-7.03895,1.0343,-12.21252
20.73314,-6.57672,1.38011,-13.69857
20.74318,-5.69715,2.02998,-15.51892
20.75322,-4.63921,2.41904,-17.1962
20.76326,-4.15334,2.76949,-17.62791
20.77329,-4.17025,3.03196,-16.70165
20.78333,-4.34024,3.20449,-15.22458
20.79337,-3.81711,3.50257,-13.69049
20.80341,-3.30325,3.93322,-13.23141
20.81344,-3.01894,4.24178,-14.17741
20.82348,-2.51825,4.27021,-16.26157
20.83352,-1.82019,4.62739,-17.77351
20.84356,-1.30948,5.0597,-17.90459
20.85359,-1.4262,5.0802,-17.61399
20.86363,-1.81271,4.6874,-16.71766
20.87367,-2.20012,4.1695,-15.42434
20.88371,-2.13129,3.88938,-14.42821
20.89374,-1.69943,3.9416,-13.8518
20.90378,-0.73891,4.22277,-13.95715
20.91382,0.58553,4.63054,-14.3067
20.92386,1.47782,5.17671,-14.32975
20.93389,1.46076,5.44756,-14.37479
20.94393,0.84306,5.00598,-14.3495
20.95397,0.45101,4.35101,-13.88068
20.96401,0.45744,3.72403,-12.88903
20.97404,0.90276,3.30235,-12.19516
20.98408,1.55518,3.08209,-12.27238
20.99412,2.14446,3.15122,-12.45539
21.00416,2.36966,3.28799,-12.51045
21.01419,2.04659,3.12608,-12.4099
21.02423,1.32025,2.77293,-12.19771
21.03427,0.7621,2.42024,-11.73832
21.04431,0.41689,1.74941,-11.42573
21.05434,0.3726,1.29751,-11.61263
21.06438,0.88226,1.44131,-11.42498
21.07442,1.46824,1.76363,-10.94345
21.08446,1.84563,1.84234,-10.5089
21.09449,1.82303,1.61728,-10.10248
21.10453,1.36948,1.45433,-9.78465
21.11457,0.71557,1.24708,-9.67901
21.12461,0.20381,0.97324,-9.63546
21.13465,0.10804,0.86999,-9.58294
21.14468,0.42003,1.08577,-9.41969
21.15472,0.82331,1.44625,-9.21753
21.16476,1.06258,1.68507,-9.14989
21.1748,0.97668,1.84234,-9.3326
21.18483,0.69342,1.8775,-9.59626
21.19487,0.31514,1.92643,-9.75847
21.20491,-0.00509,1.91716,-9.73527
21.21495,-0.15802,1.89905,-9.74335
21.22498,-0.10534,2.03911,-9.76311
21.23502,-0.04339,2.24741,-9.63801
21.24506,-0.01422,2.34467,-9.53685
21.2551,-0.09981,2.33165,-9.27409
21.26513,-0.26172,2.36068,-9.10859
21.27517,-0.41704,2.32522,-9.42822
21.28521,-0.42318,2.34737,-9.59312
21.29525,-0.3096,2.39944,-9.39485
21.30528,-0.17388,2.45825,-9.17308
21.31532,-0.17777,2.43191,-8.98245
21.32536,-0.36601,2.30113,-8.91002
21.3354,-0.68639,2.13368,-9.03976
21.34543,-0.93329,1.95891,-9.34711
21.35547,-1.02202,1.74492,-9.37794
21.36614,-1.02202,1.74492,-9.37794
21.37617,-0.67023,1.82318,-9.30551
21.38621,-0.38711,1.92614,-9.21244
21.39625,-0.42856,1.90638,-8.91466
21.40629,-0.60858,1.6918,-8.68796
21.41632,-0.77782,1.47917,-8.78343
21.42636,-0.78874,1.42171,-9.02824
21.4364,-0.67502,1.49787,-9.07537
21.44644,-0.59122,1.53528,-9.03018
21.45647,-0.43993,1.5501,-8.98948
21.46651,-0.30556,1.58825,-8.97242
21.47655,-0.30706,1.60576,-8.98364
21.48659,-0.36796,1.44909,-8.99053
21.49662,-0.50024,1.37307,-9.15992
21.50666,-0.49096,1.47752,-9.39305
21.5167,-0.36661,1.50191,-9.57202
21.52674,-0.20904,1.49293,-9.49002
21.53677,-0.0823,1.45702,-9.27978
21.54681,-0.02783,1.4036,-9.12101
21.55685,-0.21578,1.29721,-8.96748
21.56689,-0.58329,1.03848,-8.90957
21.57692,-1.02412,0.82001,-9.03482
21.58696,-1.26863,0.62953,-9.2889
21.597,-1.18408,0.58583,-9.70235
21.60704,-0.78485,0.80729,-9.98382
21.61707,-0.34791,1.04312,-9.97379
21.62711,-0.11552,1.1748,-9.88506
21.63715,-0.32741,1.10403,-9.62005
21.64719,-0.71287,0.8652,-9.29938
21.65722,-0.86311,0.72799,-9.105
21.66726,-0.81448,0.68205,-9.0441
21.6773,-0.67232,0.7437,-9.22486
21.68734,-0.42961,1.03145,-9.48029
21.69737,-0.1227,1.31891,-9.77133
21.70741,-0.07766,1.444,-10.01584
21.71745,-0.19842,1.41303,-10.06762
21.72749,-0.32412,1.30768,-10.01494
21.73753,-0.44412,1.24409,-9.96751
21.74756,-0.56743,1.18303,-9.9904
21.7576,-0.56324,1.12258,-10.11879
21.76764,-0.48393,1.21027,-10.10443
21.77768,-0.43275,1.24139,-10.06627
21.78771,-0.39938,1.11779,-10.1143
21.79775,-0.28491,1.0114,-10.14603
21.80779,-0.1025,1.22254,-10.11221
21.81783,0.145,1.38534,-10.04128
21.82786,0.10549,1.64467,-10.11745
21.8379,-0.52014,2.52139,-9.97649
21.84794,0.63476,1.04297,-8.02656
21.85798,0.71153,0.01287,-8.75784
21.86801,0.52209,0.53914,-9.14959
21.87805,0.3726,1.37098,-8.78522
21.88809,0.11657,1.54007,-9.43061
21.89813,0.04265,1.06033,-10.11311
21.90816,-0.06958,0.75477,-10.54481
21.9182,-0.082,0.45879,-10.85531
21.92824,-0.21907,0.52134,-11.17883
21.93828,-0.01526,0.98462,-10.47254
21.94831,0.59047,0.9713,-9.24715
21.95835,1.16792,0.97818,-8.49672
21.96839,1.53109,1.01604,-8.53234
21.97843,1.87915,1.46106,-8.73524
21.98846,2.2302,2.0023,-6.99676
21.9985,1.78114,1.14129,-8.41547
22.00854,0.92491,0.46687,-10.31063
22.01858,0.06419,0.60543,-10.66946
22.02861,0.06883,0.78126,-10.9406
22.03865,0.39863,0.77378,-10.94135
22.04869,0.76405,1.07934,-10.84484
22.05873,1.13186,1.59244,-10.59763
22.06876,1.37038,2.26536,-10.0525
22.0788,1.39402,1.97716,-9.01237
22.08884,1.14159,0.83947,-8.65115
22.09888,0.48677,0.27444,-9.31315
22.10891,-0.05282,0.44921,-9.8885
22.11895,-0.14635,0.6608,-10.06552
22.12899,0.15936,0.73173,-10.03739
22.13903,0.59271,0.75687,-9.86202
22.14906,0.60484,0.73322,-9.89733
22.1591,0.36601,0.77378,-10.01135
22.16914,0.17163,0.76764,-9.81772
22.17918,-0.04684,0.58598,-9.60838
22.18921,-0.21398,0.40387,-9.51725
22.19925,-0.37873,0.28431,-9.50842
22.20929,-0.43859,0.40896,-9.53745
22.21933,-0.32516,0.62504,-9.41954
22.22937,-0.27129,0.60289,-9.23877
22.2394,-0.50787,0.34207,-9.11039
22.24944,-1.26608,0.16715,-9.22232
22.25948,-1.92195,0.08814,-9.45829
22.26952,-2.11977,0.0398,-9.5382
22.27955,-2.02295,0.01062,-9.46982
22.28959,-1.88768,0.02065,-9.1041
22.29963,-1.9215,0.09667,-8.99127
22.30967,-2.07443,0.24062,-9.03512
22.3197,-2.44164,0.25977,-9.05906
22.32974,-2.66699,0.27773,-9.42702
22.33978,-2.91329,0.55516,-9.46039
22.34982,-3.7149,-0.08903,-10.52895
22.35985,-5.08394,-1.15924,-12.13351
22.36989,-6.3195,-1.70362,-13.01353
22.37993,-7.0828,-1.57344,-13.03269
22.38997,-7.41035,-1.55877,-12.98869
22.4,-7.50582,-1.94679,-13.19445
22.41004,-7.61536,-2.26596,-13.63513
22.42008,-8.00427,-2.39196,-14.80948
22.43012,-8.36325,-2.25264,-16.13991
22.44015,-8.32703,-1.82199,-16.95065
22.45019,-7.75377,-1.5896,-17.84294
22.46023,-6.95665,-1.47199,-18.21913
22.47027,-6.00915,-0.97055,-18.24875
22.4803,-4.9777,-0.22221,-18.70979
22.49034,-4.39665,0.53032,-19.43763
22.50038,-4.0881,1.15401,-20.46324
22.51042,-4.05697,1.54875,-22.01513
22.52045,-3.98216,2.01532,-23.54054
22.53049,-3.3432,2.8093,-23.69826
22.54053,-2.19683,3.75231,-22.70915
22.55057,-0.75492,4.78077,-21.69251
22.5606,0.59945,5.72244,-20.74845
22.57064,1.65918,6.0069,-19.31402
22.58068,2.63198,6.14921,-17.45418
22.59072,3.59011,6.378,-15.96154
22.60075,4.78272,6.30438,-15.5047
22.61079,6.3807,6.67892,-15.66242
22.62083,8.13011,7.24994,-15.46609
22.63087,9.68679,7.54967,-14.49884
22.6409,10.95437,7.26431,-12.71486
22.65094,11.90906,6.94049,-11.01168
22.66098,12.53035,6.86867,-9.70235
22.67102,12.70588,6.72786,-8.66761
22.68106,12.63031,6.50639,-7.7641
22.69109,12.64632,6.41122,-7.3279
22.70113,12.76289,6.48754,-7.39165
22.71117,12.57764,6.54275,-8.21555
22.72121,11.96517,6.83844,-8.57334
22.73124,11.01183,6.80806,-7.00693
22.74128,9.76056,6.23839,-4.5406
22.75132,8.9377,5.72439,-2.67402
22.76136,8.41697,5.41972,-1.76902
22.77139,8.01429,5.26141,-1.43742
22.78143,7.56089,5.13945,-1.47513
22.79147,6.93406,4.92427,-1.3819
22.80151,6.31785,4.67034,-0.99718
22.81154,5.77107,4.379,-0.58299
22.82158,4.86472,4.10935,-0.17074
22.83162,3.81202,3.90045,0.00239
22.84166,2.60773,3.43777,0.01242
22.85169,1.51089,2.51316,-0.34701
22.86173,1.02921,1.64242,-0.51685
22.87177,0.58927,1.21461,-0.46687
22.88181,0.22565,1.27282,-0.34162
22.89184,0.07422,1.36365,-0.20261
22.90188,-0.34881,1.38819,0.12899
22.91192,-1.22119,1.3406,0.44682
22.92196,-2.66086,0.61696,0.3319
22.93199,-4.09468,-0.42452,-0.3699
22.94203,-4.98458,-1.10058,-1.36709
22.95207,-5.34042,-1.43996,-2.53576
22.96211,-5.32351,-1.47588,-3.00472
22.97214,-5.48916,-1.42605,-2.41216
22.98218,-5.98954,-1.72233,-2.04629
22.99222,-7.21388,-2.68076,-2.92347
23.00226,-8.89775,-3.93098,-4.6045
23.01229,-10.1363,-5.13092,-5.71676
23.02233,-10.51279,-5.94405,-5.84963
23.03237,-10.21277,-5.93253,-5.369
23.04241,-9.53206,-5.50307,-4.81235
23.05244,-8.49104,-4.8321,-4.51187
23.06248,-7.49385,-4.08511,-4.23205
23.07252,-6.66112,-3.58621,-3.93248
23.08256,-6.15609,-3.13251,-3.86259
23.09259,-6.03234,-2.60055,-4.20766
23.10263,-5.95677,-2.24905,-4.72915
23.11267,-5.70852,-1.70811,-5.17641
23.12271,-5.26904,-0.92865,-5.86879
23.13275,-4.74232,-0.11208,-6.62745
23.14278,-4.2735,0.3518,-7.55685
23.15282,-3.72388,0.61621,-8.42924
23.16286,-3.19716,1.32325,-9.20496
23.1729,-2.60833,1.81181,-9.42298
23.18293,-1.99048,2.14969,-8.82817
23.19297,-1.77291,2.51541,-8.37342
23.20301,-2.12635,2.78835,-8.46455
23.21305,-2.55342,3.17127,-9.58773
23.22308,-2.73298,3.42461,-11.5625
23.23312,-2.63437,3.67271,-13.00246
23.24316,-2.12949,3.93143,-14.15706
23.2532,-1.32744,4.29026,-15.47702
23.26323,-0.46672,4.77239,-16.23254
23.27327,-0.05028,5.06927,-15.96065
23.28331,-0.83797,4.6654,-15.05803
23.29335,-1.97148,3.79137,-15.24553
23.30338,-2.36383,3.23412,-15.78348
23.31342,-2.38971,2.89579,-16.10146
23.32346,-2.62659,2.71293,-15.85261
23.3335,-2.58798,2.55476,-15.59987
23.34353,-2.56329,2.44732,-15.60735
23.35357,-2.86227,2.35799,-16.04534
23.36361,-3.02762,2.44224,-16.72185
23.37365,-2.99604,2.60025,-16.83752
23.38368,-3.05874,2.4373,-16.31334
23.39372,-3.02597,2.14087,-15.78871
23.40376,-3.08448,1.91656,-15.71853
23.4138,-3.30086,1.9221,-15.5864
23.42383,-3.3661,2.0629,-15.15709
23.43387,-3.24744,2.18172,-15.08811
23.44391,-2.77383,2.36472,-14.87607
23.45395,-2.27165,2.57077,-14.4318
23.46398,-1.91626,2.67268,-14.06698
23.47402,-1.74807,2.58439,-13.08177
23.48406,-1.65155,2.32791,-12.06259
23.4941,-1.72637,2.01068,-11.76107
23.50413,-1.95935,1.83156,-11.88871
23.51417,-2.08894,1.57688,-12.24544
23.52421,-1.6086,1.7337,-12.37473
23.53425,-0.58808,2.31085,-11.91534
23.54428,0.49964,2.75782,-11.54753
23.55432,1.14862,2.91539,-11.57611
23.56436,1.36844,2.88157,-11.77603
23.5744,1.44744,2.67821,-11.78127
23.58444,1.55788,2.50583,-11.2306
23.59447,1.9182,2.58918,-10.50172
23.60451,2.14206,2.58828,-10.45937
23.61455,2.10899,2.33988,-10.92983
23.62458,2.17962,2.251,-11.02021
23.63462,2.3725,2.28018,-10.62891
23.64466,2.54938,2.32462,-10.08228
23.6547,2.7445,2.41904,-9.8282
23.66474,2.85673,2.46199,-9.67213
23.67477,2.87738,2.34033,-9.55077
23.68481,2.78296,2.19144,-9.38766
23.69485,2.65278,2.13099,-9.05532
23.70489,2.58664,2.07951,-8.95342
23.71492,2.58005,2.09687,-8.85795
23.72496,2.60339,2.22795,-8.82443
23.735,2.46423,2.31115,-9.06101
23.74504,2.12605,2.18381,-9.40233
23.75507,1.83531,2.09388,-9.51216
23.76511,1.51269,2.03013,-9.38572
23.77515,1.06617,1.88199,-9.19613
23.78519,0.63162,1.68342,-9.04529
23.79522,0.31199,1.54546,-8.82937
23.80526,0.21024,1.50191,-8.84777
23.8153,0.25992,1.57359,-8.95506
23.82534,0.32666,1.58391,-8.98529
23.83537,0.16505,1.46361,-8.72118
23.84541,-0.1257,1.38699,-8.65025
23.85545,-0.34521,1.41916,-8.7957
23.86549,-0.37604,1.50999,-9.04051
23.87552,-0.37679,1.62162,-9.30985
23.88556,-0.47211,1.45971,-9.49765
23.8956,-0.40148,1.49937,-9.07747
23.90564,-0.42168,1.53154,-8.64292
23.91567,-0.67157,1.38071,-8.77415
23.92571,-0.94257,1.19097,-8.9184
23.93575,-0.98237,1.0536,-8.9377
23.94579,-0.89319,1.08682,-9.01956
23.95582,-0.83543,1.06572,-9.20122
23.96586,-0.68818,1.14847,-9.48074
23.9759,-0.48258,1.53483,-9.90736
23.98594,-0.372,1.77455,-10.14079
23.99597,-0.31469,1.86598,-10.01465
24.00601,-0.31439,1.92673,-9.79438
24.01605,-0.28865,1.80044,-9.5798
24.02609,-0.30481,1.74298,-9.62439
24.03612,-0.33579,1.71709,-9.51366
24.04616,-0.36975,1.51703,-9.25075
24.0562,-0.52912,1.37023,-9.25075
24.06624,-0.62908,1.3198,-9.54149
24.07628,-0.46388,1.40809,-9.4752
24.08631,-0.27578,1.49114,-9.46533
24.09635,-0.29628,1.48515,-9.45036
24.10639,-0.50159,1.3852,-9.46413
24.11643,-0.74415,1.24903,-9.55466
24.12646,-0.79996,1.26444,-9.65911
24.1365,-0.68833,1.30424,-9.71417
24.14654,-0.56758,1.31112,-9.81159
24.15658,-0.56234,1.26743,-9.90317
24.16661,-0.65706,1.21581,-9.88207
24.17665,-0.76689,1.20129,-9.81847
24.18669,-0.75223,1.21745,-9.48523
24.19673,-0.54977,1.24229,-9.1053
24.20676,-0.31125,1.31172,-9.1261
24.2168,-0.21608,1.43906,-9.3519
24.22684,-0.23388,1.47617,-9.61107
24.23688,-0.30376,1.54022,-9.83658
24.24691,-0.35644,1.50072,-9.78106
24.25695,-0.35165,1.47707,-9.39769
24.26699,-0.3316,1.55503,-9.25553
24.27703,-0.31858,1.51194,-9.27364
24.28706,-0.27473,1.48276,-9.21274
24.2971,-0.3114,1.51493,-9.25808
24.30714,-0.38711,1.58391,-9.47879
24.31718,-0.43335,1.56506,-9.63487
24.32721,-0.44338,1.53723,-9.64429
24.33725,-0.25349,1.65813,-9.37569
24.34729,-0.01721,1.6912,-9.06774
24.35733,0.16595,1.6113,-9.08435
24.36737,0.19902,1.69554,-9.24566
24.3774,0.09951,1.72502,-9.46533
24.38744,0.12929,1.72383,-9.56424
24.39748,0.14829,1.715,-9.51411
24.40751,-0.02903,1.66008,-9.496
24.41755,-0.19169,1.5697,-9.60853
24.42759,-0.14979,1.50655,-9.61257
24.43763,-0.02978,1.49862,-9.57351
24.44767,0.01003,1.54231,-9.68245
24.4577,-0.08649,1.54576,-9.84062
24.46774,-0.23448,1.45148,-9.83673
24.47778,-0.36721,1.37532,-9.72704
24.48781,-0.44607,1.33222,-9.70056
24.49785,-0.44592,1.27446,-9.73497
24.50789,-0.27279,1.35347,-9.66898
24.51793,-0.10909,1.45822,-9.71163
24.52797,-0.15981,1.46286,-9.73423
24.538,-0.32142,1.41183,-9.65387
24.54804,-0.56428,1.37158,-9.4577
24.55808,-0.75163,1.31651,-9.27933
24.56812,-0.82615,1.26204,-9.25359
24.57815,-0.9092,1.30125,-9.26212
24.58819,-1.13006,1.37966,-9.15124
24.59823,-1.47632,1.33103,-8.76742
24.60827,-2.01711,1.15386,-8.33945
24.6183,-2.71966,0.79921,-8.39766
24.62834,-3.38765,0.38861,-8.77265
24.63838,-3.7155,0.18735,-8.94339
24.64842,-3.66582,0.48647,-8.897
24.65845,-3.38959,1.2613,-8.79001
24.66849,-3.48057,1.86927,-8.93366
24.67853,-3.95672,1.88783,-9.5985
24.68857,-4.54868,1.72248,-10.51458
24.6986,-5.04683,1.53438,-11.32368
24.70864,-5.55335,1.54785,-11.64944
24.71868,-5.82809,1.97432,-11.84382
24.72872,-6.01723,2.30876,-12.05795
24.73875,-6.48395,2.00065,-12.04568
24.74879,-7.03147,1.47603,-12.12454
24.75883,-7.49056,1.30469,-12.10119
24.76887,-7.74105,1.2987,-12.03206
24.7789,-7.87573,1.35198,-12.04194
24.78894,-7.73477,1.44849,-12.58467
24.79898,-7.4747,1.62581,-13.43267
24.80902,-6.98299,1.86209,-14.24266
24.81906,-6.19126,2.26357,-15.00551
24.82909,-5.3452,2.90207,-15.77824
24.83913,-4.29684,3.60088,-16.36078
24.84917,-3.15795,4.12656,-16.58
24.85921,-2.1696,4.52504,-17.15505
24.86924,-1.22359,4.9563,-17.92075
24.87928,-0.1248,5.48512,-18.7237
24.88932,1.01155,5.95872,-19.72014
24.89936,2.18396,6.40868,-20.28802
24.90939,3.38016,6.75689,-20.13389
24.91943,4.55257,6.94423,-19.45019
24.92947,5.53435,7.11901,-18.90477
24.93951,6.39626,7.28361,-18.66684
24.94954,7.15657,7.36322,-18.6646
24.95958,7.55505,7.3686,-18.83414
24.96962,7.89697,7.43325,-18.48518
24.97966,8.56032,7.44073,-17.35736
24.98969,9.39919,7.06245,-16.07332
24.99973,9.88641,6.36199,-14.67077
25.00977,9.57157,5.2861,-12.76259
25.01981,8.15091,4.23714,-10.9421
25.02984,6.60964,3.59355,-9.50169
25.03988,6.19964,3.50721,-8.3821
25.04992,6.52704,3.90883,-7.68673
25.05996,7.20685,4.39471,-7.44567
25.06999,7.53156,4.50753,-7.27987
25.08003,7.24246,4.13913,-6.73953
25.09007,6.45342,3.37223,-6.11315
25.10011,5.86355,2.97659,-5.38561
25.11014,5.63206,2.90192,-5.15382
25.12018,5.34625,2.75199,-5.13033
25.13022,5.22505,2.85164,-5.25497
25.14026,5.22759,3.30894,-4.81654
25.15029,5.25931,3.56407,-4.41311
25.16033,5.31857,3.56362,-4.17055
25.17037,5.46581,3.40485,-3.75097
25.18041,5.70254,3.27826,-3.81681
25.19044,5.77586,3.38046,-4.18611
25.20048,5.69132,3.60612,-4.2527
25.21052,5.54557,3.46695,-4.15005
25.22056,5.43678,3.12877,-3.72478
25.23059,5.45564,2.83324,-3.29008
25.24063,5.32081,2.538,-2.79867
25.25067,5.03306,2.28676,-2.29754
25.26071,4.98982,2.20371,-1.65948
25.27074,5.0805,1.98539,-1.28284
25.28078,4.93595,1.90474,-1.43652
25.29082,4.66316,1.93466,-1.90444
25.30086,4.06565,1.75091,-2.37909
25.3109,3.08328,1.20354,-2.90566
25.32093,1.96145,0.50787,-3.04542
25.33097,0.93598,-0.07272,-2.76994
25.34101,-0.01242,-0.37529,-2.08296
25.35105,-0.62608,-0.61875,-1.40046
25.36108,-1.10732,-0.78784,-1.21221
25.37112,-1.42141,-1.13545,-1.60816
25.38116,-1.77994,-1.56775,-2.09792
25.3912,-2.30846,-1.88618,-2.42548
25.40123,-2.80241,-2.2073,-2.10121
25.41127,-3.09436,-2.4358,-1.44266
25.42131,-3.09481,-2.36921,-0.85398
25.43135,-3.18549,-2.3128,-0.6831
25.44138,-3.5708,-2.4774,-0.76465
25.45142,-4.0682,-2.69213,-0.78201
25.46146,-4.61812,-2.77174,-0.66409
25.4715,-4.97979,-2.69467,-0.18076
25.48153,-5.11042,-2.34766,0.71317
25.49157,-5.44292,-2.07353,0.71497
25.50161,-5.91353,-1.90982,-0.25753
25.51165,-5.83168,-1.64975,-1.16149
25.52168,-5.50607,-1.15475,-1.69943
25.53172,-5.33219,-0.6605,-2.05437
25.54176,-5.5318,-0.27683,-1.88813
25.5518,-5.84245,-0.11268,-2.00529
25.56183,-6.43995,0.14575,-3.03241
25.57187,-7.06454,0.51924,-4.7504
25.58191,-7.17812,1.21581,-5.47434
25.59195,-6.73025,1.85147,-5.95647
25.60198,-6.07229,2.34467,-7.52827
25.61202,-5.85382,3.04363,-9.61422
25.62206,-6.45118,3.78104,-10.23491
25.6321,-7.77951,3.92559,-9.89568
25.64213,-9.39141,3.77625,-10.32963
25.65217,-10.19616,3.79316,-12.04717
25.66221,-9.79618,4.27515,-14.51589
25.67225,-8.58576,5.4507,-17.14488
25.68228,-7.39838,6.55278,-19.98889
25.69232,-6.81928,7.44268,-22.11734
25.70236,-6.61922,8.34738,-22.55996
25.7124,-6.37561,8.75634,-21.09157
25.72243,-6.1534,8.21091,-19.35458
25.73247,-5.78574,7.64259,-19.01236
25.74251,-5.11386,7.61491,-19.6528
25.75255,-4.21394,7.57585,-20.45576
25.76258,-3.17307,7.31174,-21.79891
25.77262,-2.91434,6.79085,-23.09372
25.78266,-3.04542,5.79681,-22.49607
25.7927,-3.34799,4.37959,-19.36954
25.80273,-3.26629,2.48773,-15.56635
25.81277,-2.42667,1.22583,-12.66682
25.82281,-1.14428,1.49653,-11.10221
25.83285,0.35704,2.40887,-10.52237
25.84289,1.73535,3.00921,-10.09321
25.85292,2.76964,3.02762,-9.94821
25.86296,3.13162,2.83803,-10.03066
25.873,2.85598,2.75932,-10.26364
25.88304,2.36113,2.56374,-10.95362
25.89307,1.75704,2.3336,-12.04014
25.90311,1.67654,2.23903,-12.70618
25.91315,2.20476,2.51481,-12.9857
25.92319,3.02298,2.9534,-13.6269
25.93322,3.74483,3.40545,-14.39813
25.94326,4.08945,3.69231,-14.7013
25.9533,4.10606,3.63066,-14.17173
25.96334,3.85481,3.29158,-13.1283
25.97337,3.49778,3.03689,-12.08099
25.98341,2.93469,2.88097,-11.41136
25.99345,2.53007,2.68704,-11.13409
26.00349,2.4976,2.5202,-10.9436
26.01352,2.65427,2.60729,-11.01168
26.02356,2.67357,2.81438,-10.7977
26.0336,2.51481,2.82007,-10.18897
26.04364,2.19728,2.7047,-9.80021
26.05367,1.9803,2.54549,-9.35115
26.06371,1.9411,2.56434,-8.75769
26.07375,1.97192,2.69976,-8.51468
26.08379,2.00006,2.94846,-8.85181
26.09382,2.06081,3.28544,-9.42597
26.10386,2.01936,3.38331,-9.46593
26.1139,1.93706,3.22843,-9.05622
26.12394,1.94589,3.07864,-8.51243
26.13397,1.90279,2.99021,-7.98167
26.14401,1.75001,2.97195,-7.93992
26.15405,1.36305,2.9326,-8.28738
26.16409,0.96486,2.76545,-8.26478
26.17412,0.83213,2.4973,-8.15809
26.18416,0.81867,2.3954,-8.14597
26.1942,0.83034,2.32582,-8.01639
26.20424,0.74864,2.29275,-8.05754
26.21427,0.68923,2.33105,-8.22049
26.22431,0.65466,2.29589,-8.23456
26.23435,0.61636,2.21972,-8.23186
26.24439,0.55575,2.24905,-8.41233
26.25442,0.59556,2.38373,-8.61344
26.26446,0.60708,2.44224,-8.59114
26.2745,0.49276,2.30951,-8.51632
26.28454,0.40971,2.08041,-8.71804
26.29457,0.31439,2.0436,-9.03961
26.30461,0.26067,2.06036,-9.35534
26.31465,0.22191,2.04854,-9.58833
26.32469,0.30242,2.11438,-9.5783
26.33472,0.4124,2.08984,-9.55855
26.34476,0.43859,2.02385,-9.69008
26.3548,0.31918,1.9405,-9.91364
26.36484,0.11477,1.7955,-9.96631
26.37487,-0.05148,1.6092,-9.89045
26.38491,-0.08604,1.4464,-9.89823
26.39495,-0.12629,1.37143,-9.83314
26.40499,-0.19019,1.37532,-9.90631
26.41503,-0.15173,1.35198,-10.02362
26.42506,-0.07497,1.35871,-10.01929
26.4351,0.03487,1.38041,-9.84496
26.44514,0.06823,1.33641,-9.50902
26.45518,-0.06584,1.23915,-9.31868
26.46521,-0.25842,1.14488,-9.19658
26.47525,-0.27144,1.08143,-9.08001
26.48529,-0.06823,1.11869,-9.05981
26.49533,0.25154,1.26638,-9.19329
26.50536,0.38831,1.35721,-9.42253
26.5154,0.14216,1.33237,-9.56184
26.52544,-0.12629,1.19994,-9.59671
26.53548,-0.25094,1.10507,-9.47909
26.54551,-0.17268,1.17929,-9.38213
26.55555,0.02559,1.29257,-9.45096
26.56559,0.06779,1.31367,-9.50767
26.57562,-0.02858,1.28584,-9.55376
26.58566,-0.05641,1.23855,-9.52503
26.5957,0.01062,1.26369,-9.42552
26.60574,0.11866,1.34958,-9.41176
26.61578,0.1637,1.46271,-9.57875
26.62581,0.0627,1.42006,-9.74859
26.63585,-0.05656,1.32444,-9.88117
26.64589,0.01182,1.39926,-10.00821
26.65593,0.20485,1.53379,-10.00223
26.66596,0.34387,1.59259,-9.85483
26.676,0.31379,1.52002,-9.72914
26.68604,0.17523,1.45448,-9.6826
26.69608,0.0187,1.38026,-9.58788
26.70611,0.02918,1.30424,-9.45246
26.71615,0.08739,1.2987,-9.29264
26.72619,0.13886,1.31112,-9.34592
26.73623,0.19588,1.31786,-9.67856
26.74626,0.24526,1.38834,-9.85917
26.7563,0.30616,1.4666,-9.81967
26.76634,0.46403,1.47588,-9.62469
26.77638,0.53645,1.46271,-9.47834
26.78641,0.44233,1.35392,-9.51441
26.79645,0.26157,1.20743,-9.60718
26.80649,0.11537,1.17735,-9.61077
26.81653,0.02289,1.19441,-9.60928
26.82656,0.13093,1.22134,-9.67856
26.8366,0.33818,1.32639,-9.67198
26.84664,0.55156,1.5064,-9.74111
26.85668,0.63746,1.58511,-9.84167
26.86671,0.50996,1.50236,-9.89524
26.87675,0.22057,1.38804,-9.90257
26.88679,0.11926,1.28778,-9.84361
26.89683,0.14635,1.3219,-9.62738
26.90686,0.15892,1.36634,-9.41939
26.9169,0.12869,1.37577,-9.33619
26.92694,0.06674,1.36784,-9.43076
26.93698,0.10849,1.43024,-9.52458
26.94701,0.11013,1.46016,-9.44662
26.95705,-0.01526,1.38325,-9.31778
26.96709,-0.19124,1.2815,-9.2274
26.97713,-0.27698,1.26788,-9.16665
26.98716,-0.18046,1.32534,-9.07208
26.9972,-0.01915,1.43727,-9.05113
27.00724,0.1028,1.54995,-9.15034
27.01728,0.06434,1.5911,-9.25389
27.02731,-0.0627,1.53004,-9.36148
27.03735,-0.22087,1.4464,-9.49421
27.04739,-0.3108,1.48156,-9.46682
27.05743,-0.32651,1.58765,-9.23892
27.06746,-0.25678,1.67011,-9.13193
27.0775,-0.24271,1.63584,-9.24521
27.08754,-0.37918,1.64556,-9.47924
27.09758,-0.62578,1.61998,-9.72196
27.10762,-0.91129,1.44056,-9.85184
27.11765,-1.18169,1.26953,-9.83718
27.12769,-1.4651,1.20922,-9.82057
27.13773,-1.72637,1.20832,-9.89494
27.14777,-2.02953,1.10283,-9.93713
27.1578,-2.51376,0.9505,-10.00133
27.16784,-2.85928,0.67935,-10.21755
27.17788,-3.04498,0.45834,-10.28773
27.18792,-3.25522,0.42722,-10.27397
27.19795,-3.47563,0.55037,-10.44411
27.20799,-3.78478,0.59631,-10.57878
27.21803,-4.16322,0.65586,-10.91142
27.22806,-4.62171,0.76555,-11.53287
27.2381,-5.16354,0.72724,-12.4304
27.24814,-5.72903,0.49231,-13.34094
27.25818,-6.30244,0.16625,-13.91016
27.26822,-6.63748,0.01721,-14.11502
27.27825,-6.69434,-0.03756,-13.99022
27.28829,-6.69524,-0.10744,-13.78417
27.29833,-6.53482,-0.17702,-13.935
27.30837,-6.18198,0.08739,-14.38332
27.3184,-5.48212,0.85009,-15.10562
27.32844,-4.22307,1.74822,-16.32082
27.33848,-2.93499,2.61207,-17.47543
27.34852,-1.87975,3.26554,-18.37969
27.35855,-0.97504,3.83656,-18.99066
27.36859,-0.05507,4.34847,-19.15496
27.37863,0.73652,4.75863,-19.19506
27.38867,1.32773,5.04952,-19.22978
27.3987,1.95053,5.37453,-18.96851
27.40874,2.64544,5.80115,-18.03672
27.41878,3.53205,6.23884,-17.08188
27.42882,4.43511,6.49921,-16.24436
27.43885,5.31483,6.63972,-15.45158
27.44889,6.10207,6.71963,-14.85991
27.45893,6.78801,6.71544,-14.60298
27.46897,7.35978,6.63643,-14.27243
27.479,8.01205,6.64451,-13.93665
27.48904,8.90673,6.65109,-13.32268
27.49908,9.9093,6.48948,-12.32176
27.50912,10.63983,6.28373,-11.26786
27.51915,11.03742,6.09264,-10.52117
27.52919,10.99777,5.85756,-10.032
27.53923,10.5487,5.54931,-9.79019
27.54927,10.10772,5.01436,-9.51127
27.5593,9.73752,4.46863,-8.95192
27.56934,9.63038,4.067,-8.4014
27.57938,9.67287,3.9235,-7.96431
27.58942,9.63053,4.04126,-7.46033
27.59945,9.33918,4.21649,-6.86672
27.60949,8.82248,4.18282,-6.19111
27.61953,8.2594,3.84389,-5.42466
27.62957,7.74719,3.32166,-4.78975
27.6396,7.26655,2.99814,-4.15768
27.64964,6.93032,2.78236,-3.46276
27.65968,6.57448,2.41769,-2.73702
27.66972,6.30139,2.03013,-1.95861
27.67975,6.06915,1.80059,-1.25546
27.68979,5.83287,1.52585,-1.10717
27.69983,5.48706,1.485,-1.54187
27.70987,5.27742,1.8799,-2.27614
27.7199,5.12329,2.08415,-2.78715
27.72994,4.74785,1.97581,-2.73927
27.73998,4.17474,1.78802,-2.18127
27.75002,3.34664,1.5281,-1.39417
27.76005,2.39286,1.19186,-0.84665
27.77009,1.51029,0.97788,-0.56503
27.78013,0.88585,0.85847,-0.24062
27.79017,0.70599,0.71632,0.29344
27.8002,0.78919,0.49605,1.07814
27.81024,0.5577,0.2888,1.39268
27.82028,0.13512,0.0829,1.32474
27.83032,-0.31394,-0.06375,0.9086
27.84035,-0.91084,-0.16685,0.0187
27.85039,-1.59529,-0.32007,-0.48797
27.86043,-2.44298,-0.5767,-0.85772
27.87047,-3.32884,-0.96875,-0.82346
27.88051,-4.22098,-1.32669,-0.62563
27.89054,-4.80935,-1.63599,-0.72649
27.90058,-5.14858,-1.74627,-0.70389
27.91062,-5.21801,-1.73669,-1.01305
27.92066,-5.15382,-1.66502,-1.58706
27.93069,-5.17237,-1.59214,-2.36532
27.94073,-5.3271,-1.31427,-2.78984
27.95077,-5.37453,-0.90082,-3.16678
27.96081,-5.28221,-0.63342,-3.30654
27.97084,-5.39773,-0.27548,-3.48446
27.98088,-5.63176,-0.02933,-4.55691
27.99092,-5.93972,0.0606,-5.79277
28.00096,-6.47168,-0.11313,-6.42544
28.01099,-7.39689,-0.40956,-6.36693
28.02103,-8.33526,-0.53091,-6.42035
28.03107,-8.76397,-0.13707,-6.17584
28.04111,-8.40051,0.80804,-6.45192
28.05114,-7.19473,1.87496,-7.04943
28.06118,-6.16627,2.7255,-7.60623
28.07122,-6.22732,2.98258,-8.60521
28.08126,-7.21986,2.59157,-10.04218
28.09129,-8.64352,2.27868,-11.65123
28.10133,-9.81593,2.19773,-13.44688
28.11137,-10.14633,2.35814,-14.33483
28.12141,-9.90691,2.75513,-14.77522
28.13144,-9.58204,2.87993,-15.13869
28.14148,-9.69891,2.16855,-15.08901
28.15152,-10.15142,1.1356,-15.00626
28.16156,-10.4688,0.68235,-15.30314
28.17159,-10.58088,1.14129,-16.33788
28.18163,-10.41642,1.94454,-17.82244
28.19167,-9.89613,2.60654,-18.89803
28.20171,-9.01133,3.38944,-19.39498
28.21174,-7.61581,4.03558,-19.45663
28.22178,-6.09444,4.02974,-19.41144
28.23182,-4.89255,3.89252,-19.2618
28.24186,-3.89417,3.96121,-19.10004
28.25189,-2.90102,4.09962,-19.43314
28.26193,-1.76931,4.398,-20.02914
28.27197,-0.72021,4.86202,-21.0567
28.28201,0.25723,5.49185,-22.07499
28.29204,0.97848,6.11928,-22.2987
28.30208,1.06273,6.22388,-22.23256
28.31212,1.05465,5.6774,-21.08738
28.32216,1.43592,5.38396,-18.72206
28.33219,2.3954,5.55679,-16.28925
28.34223,3.41024,5.46521,-14.27528
28.35227,4.26168,5.40087,-12.58722
28.36231,4.99131,5.33488,-11.20636
28.37234,5.54871,5.31154,-10.45997
28.38238,6.03339,5.36915,-10.04278
28.39242,6.39461,5.47644,-9.64474
28.40246,6.60964,5.62652,-9.14151
28.41249,6.27371,5.64732,-8.72432
28.42253,5.45758,5.25063,-9.01462
28.43257,4.87385,4.81698,-9.36253
28.44261,4.91724,4.86427,-8.90374
28.45264,5.42257,5.03575,-8.14403
28.46268,5.70658,5.02648,-7.45869
28.47272,5.53435,4.70057,-7.07247
28.48276,4.85155,4.19883,-6.94408
28.49279,3.92888,3.68094,-6.90982
28.50283,2.88397,3.18863,-6.977
28.51287,1.65918,2.60744,-7.52752
28.52291,0.70868,1.95801,-8.14777
28.53294,0.35105,1.5694,-8.05813
28.54298,0.48617,1.48874,-7.65336
28.55302,0.78335,1.54157,-7.55056
28.56306,0.76599,1.54351,-7.88755
28.57309,0.50054,1.3231,-8.39661
28.58313,0.13078,0.97773,-8.71385
28.59317,-0.26127,0.73233,-8.80138
28.60321,-0.64584,0.60558,-8.93157
28.61324,-0.78305,0.60319,-9.07552
28.62328,-0.79203,0.61905,-9.0854
28.63332,-0.66589,0.63686,-8.9003
28.64336,-0.38562,0.69207,-8.72731
28.65339,-0.11313,0.83528,-8.69095
28.66343,-0.02963,0.87553,-8.72013
28.67347,-0.12151,0.83273,-8.93142
28.68351,-0.38053,0.72963,-9.2494
28.69354,-0.66753,0.60618,-9.45799
28.70358,-0.89513,0.59885,-9.33215
28.71362,-0.93419,0.61396,-9.16321
28.72366,-0.82181,0.63656,-9.29205
28.73369,-0.73801,0.67038,-9.63965
28.74373,-0.6804,0.73711,-10.02901
28.75377,-0.52044,0.87299,-10.1571
28.76381,-0.41495,1.00901,-10.06268
28.77384,-0.39759,1.00871,-9.96078
28.78388,-0.40627,0.93419,-9.81997
28.79392,-0.36018,0.91174,-9.78226
28.80396,-0.37769,0.95663,-9.9714
28.81399,-0.48079,0.96232,-10.36375
28.82403,-0.46926,0.9713,-10.47523
28.83407,-0.47031,0.98581,-10.2183
28.84411,-0.55216,0.96127,-9.85603
28.85415,-0.69731,0.81104,-9.52653
28.86418,-0.71033,0.65496,-9.21783
28.87422,-0.66529,0.4962,-9.086
28.88426,-0.68594,0.46343,-9.15079
28.89429,-0.75717,0.52044,-9.49151
28.90433,-0.7829,0.57027,-9.80949
28.91437,-0.73726,0.62938,-9.7432
28.92441,-0.76974,0.60079,-9.53865
28.93444,-0.9273,0.49994,-9.57322
28.94448,-1.08173,0.44682,-9.70445
28.95452,-1.08637,0.47001,-9.77029
28.96456,-1.02696,0.4968,-9.83164
28.9746,-0.94945,0.55007,-9.94402
28.98463,-0.86371,0.57102,-9.92471
28.99467,-0.72679,0.61591,-9.7634
29.00471,-0.56159,0.66394,-9.72375
29.01474,-0.4127,0.73577,-9.7224
29.02478,-0.43021,0.6813,-9.75817
29.03482,-0.5155,0.60932,-9.80725
29.04486,-0.47271,0.60873,-9.74799
29.05489,-0.31858,0.61052,-9.57336
29.06493,-0.06509,0.71811,-9.5777
29.07497,0.0615,0.82031,-9.73408
29.08501,-0.01915,0.67382,-9.95404
29.09504,-0.0615,0.59601,-9.85887
29.10508,0.00658,0.56593,-9.56214
29.11512,0.09816,0.53256,-9.42911
29.12516,0.13512,0.55261,-9.41984
29.13519,0.14769,0.59541,-9.55092
29.14523,0.06898,0.45385,-9.73677
29.15527,0.04938,0.38532,-9.7637
29.16531,0.08529,0.45206,-9.63157
29.17534,0.23149,0.53346,-9.57037
29.18538,0.34327,0.61486,-9.622
29.19542,0.37484,0.64584,-9.7028
29.20546,0.34611,0.68833,-9.75652
29.21549,0.38651,0.61067,-9.74201
29.22553,0.45011,0.6195,-9.66345
29.23557,0.55216,0.71826,-9.57965
29.24561,0.66499,0.76614,-9.7245
29.25565,0.68803,0.82899,-9.81623
29.26568,0.681,0.84575,-9.73348
29.27572,0.58149,0.81343,-9.77253
29.28576,0.54348,0.79473,-9.72614
29.2958,0.63267,0.79233,-9.65342
29.30583,0.71587,0.81134,-9.8686
29.31587,0.71751,0.84096,-9.97843
29.32591,0.70913,0.79069,-9.88192
29.33595,0.61232,0.73936,-9.79528
29.34598,0.49814,0.73577,-9.63546
29.35602,0.50533,0.70225,-9.56079
29.36606,0.54004,0.55516,-9.57202
29.3761,0.56832,0.55112,-9.56858
29.38613,0.50503,0.63027,-9.61182
29.39617,0.44113,0.65167,-9.7429
29.40621,0.46687,0.67696,-9.81249
29.41625,0.43859,0.73023,-9.83807
29.42628,0.40836,0.64479,-9.75039
29.43632,0.43081,0.56623,-9.73423
29.44636,0.54333,0.67472,-9.84885
29.4564,0.69866,0.85174,-10.06702
29.46643,0.82211,0.91743,-10.1562
29.47647,0.82331,0.93269,-10.02796
29.48651,0.82765,0.93479,-9.9726
29.49655,0.85682,0.89139,-9.8496
29.50658,0.89453,0.91638,-9.75503
29.51662,0.96037,0.94571,-9.75742
29.52666,1.02202,1.0108,-9.81578
29.5367,1.13725,1.09131,-9.77897
29.54673,1.22688,1.16822,-9.7049
29.55677,1.21356,1.09071,-9.57815
29.56681,1.15371,1.06018,-9.51291
29.57685,1.10867,1.08577,-9.5162
29.58688,1.13261,1.08652,-9.40846
29.59692,1.2402,1.13126,-9.11981
29.60696,1.45882,1.27087,-8.88922
29.617,1.64497,1.50865,-8.84658
29.62703,1.8154,1.76348,-8.78133
29.63707,1.99123,2.03582,-8.61015
29.64711,2.20596,2.20491,-8.15824
29.65715,2.39944,2.20117,-7.71247
29.66718,2.44313,2.20012,-7.40691
29.67722,2.45047,2.31878,-7.25548
29.68726,2.42952,2.41186,-7.19996
29.6973,2.29649,2.44927,-7.07068
29.70733,2.20581,2.49536,-6.80402
29.71737,2.10525,2.51421,-6.48903
29.72741,1.84503,2.40752,-6.21849
29.73745,1.44505,2.30143,-6.11644
29.74748,1.10253,2.27464,-6.06332
29.75752,0.71242,2.25414,-5.91787
29.76756,0.35689,2.11124,-5.81447
29.7776,-0.55156,1.89351,-5.46791
29.78763,-2.17992,1.22778,-5.20814
29.79767,-3.94564,0.10819,-5.38097
29.80771,-5.52672,-0.5999,-5.44172
29.81775,-6.37441,-0.5366,-5.83691
29.82778,-6.61338,-0.2496,-6.09235
29.83782,-6.80926,0.05177,-6.236
29.84786,-7.31429,0.22072,-6.66336
29.8579,-8.17141,0.15562,-7.46377
29.86793,-8.93277,0.01077,-8.63963
29.87797,-9.46054,-0.00239,-9.73767
29.88801,-9.72555,0.22086,-10.61664
29.89805,-9.9512,0.63057,-11.42034
29.90808,-10.40026,1.16972,-12.31981
29.91812,-10.63235,1.58122,-13.43327
29.92816,-10.35926,2.00125,-14.82385
29.9382,-9.76924,2.79613,-16.72335
29.94824,-9.03078,3.82863,-19.14059
29.95827,-8.4014,4.45501,-21.71301
29.96831,-7.78939,4.72271,-23.69063
29.97835,-6.75045,5.00717,-24.35292
29.98839,-5.29852,5.287,-24.00456
29.99842,-3.8382,5.4311,-23.43893
30.00846,-2.74061,5.34027,-23.17497
30.0185,-2.30711,5.15337,-23.17617
30.02854,-1.85221,4.84467,-23.17842
30.03857,-0.78664,4.71583,-22.70137
30.04861,0.58134,5.02902,-22.15639
30.05865,1.73714,5.41553,-22.58331
30.06869,2.55955,5.65989,-23.71023
30.07872,3.41264,6.01902,-24.04931
30.08876,4.60525,6.67758,-23.54503
30.0988,6.13739,7.29124,-22.59812
30.10884,7.4337,7.87318,-21.2442
30.11887,8.56226,8.31746,-20.25465
30.12891,9.58219,8.4225,-19.25178
30.13895,10.33128,8.4855,-17.70108
30.14899,10.88703,8.47143,-16.55531
30.15902,11.1706,8.20583,-15.89301
30.16906,11.46149,7.95099,-15.13031
30.1791,11.70495,7.91748,-14.21078
30.18914,11.95724,7.96715,-13.43057
30.19917,12.01784,7.97928,-12.36919
30.20921,11.96846,7.9269,-11.69523
30.21925,11.70929,7.92541,-11.1691
30.22929,11.09518,7.70559,-10.10712
30.23932,10.12523,7.20475,-8.56585
30.24936,9.20526,6.58166,-7.40497
30.2594,8.44944,6.28448,-6.4021
30.26944,7.85971,6.31276,-5.64493
30.27947,7.36247,6.24258,-5.12344
30.28951,6.99346,5.91772,-4.73019
30.29955,6.59647,5.67022,-4.24866
30.30959,6.1917,5.38546,-3.80244
30.31962,5.72873,5.14933,-3.43762
30.32966,5.12419,4.84242,-2.80496
30.3397,4.40249,4.31585,-2.24007
30.34974,3.65146,3.9624,-1.51149
30.35977,3.07864,3.62243,-0.34477
30.36981,2.77967,3.17052,0.51475
30.37985,2.72056,2.76366,0.90665
30.38989,2.85,2.36667,1.10941
30.39992,2.83623,2.09044,1.3635
30.40996,2.79867,2.13787,1.66397
30.42,3.04228,2.24471,1.89725
30.43004,3.19252,2.32806,2.13039
30.44007,2.94412,2.2525,2.34048
30.45011,2.27404,1.71859,2.30427
30.46015,1.31756,0.93479,1.81301
30.47019,0.40402,0.42497,1.14488
30.48022,-0.37454,0.05237,0.71257
30.49026,-0.95618,0.02679,0.30317
30.5003,-1.18453,0.30361,-0.19992
30.51034,-1.26997,0.38876,-0.87493
30.52037,-1.51149,0.50832,-1.46301
30.53041,-1.82558,0.49336,-1.34659
30.54045,-2.39899,0.40163,-1.14607
30.55049,-3.18953,0.15547,-1.23451
30.56052,-3.95672,0.0606,-1.6909
30.57056,-4.27141,0.21533,-2.45406
30.5806,-4.1891,0.55935,-3.17561
30.59064,-4.03857,0.98521,-3.72418
30.60067,-4.16561,1.43577,-4.21664
30.61071,-4.34907,1.79146,-4.43765
30.62075,-4.57622,1.84189,-4.32168
30.63079,-5.41957,1.56087,-4.57248
30.64082,-6.66546,1.18663,-5.57729
30.65086,-7.97673,1.00182,-6.68297
30.6609,-8.94668,0.97354,-7.59441
30.67094,-9.43615,1.43398,-7.84864
30.68097,-9.42058,2.2278,-7.93633
30.69101,-8.88713,2.52184,-7.79402
30.70105,-8.88413,2.01726,-8.35367
30.71109,-9.43989,1.26384,-9.82012
30.72112,-10.60093,0.72305,-11.15653
30.73116,-12.45494,0.12091,-12.40421
30.7412,-14.46247,-0.36946,-13.462
30.75124,-16.18525,-0.62174,-14.01596
30.76127,-16.30796,-0.65332,-14.52368
30.77131,-14.44751,0.0009,-15.06521
30.78135,-11.39715,1.07709,-15.32813
30.79139,-8.82637,1.60786,-15.14482
30.80142,-7.83054,1.73191,-15.17924
30.81146,-8.17904,1.65155,-15.82896
30.8215,-8.67225,1.74552,-16.32187
30.83154,-8.31716,2.30592,-16.41106
30.84157,-7.35274,3.33258,-16.44607
30.85161,-6.11853,4.5828,-17.01858
30.86165,-4.4803,5.78619,-17.84458
30.87169,-2.65517,6.43397,-18.10001
30.88172,-1.24139,6.58974,-18.16735
30.89176,-0.29703,6.43891,-18.87514
30.9018,0.83318,6.20607,-19.60776
30.91184,2.03268,6.2152,-19.77296
30.92187,3.05799,6.20368,-19.88235
30.93191,3.82414,6.20383,-20.2102
30.94195,4.46982,6.15774,-20.18222
30.95199,5.37139,6.06242,-19.73316
30.96202,7.03267,6.07918,-18.64574
30.97206,8.83221,6.32383,-16.93449
30.9821,10.38874,6.35646,-15.28563
30.99214,11.60859,6.1124,-13.97226
31.00217,12.14848,5.81222,-13.18442
31.01221,11.68266,5.31243,-12.84983
31.02225,10.52356,4.47596,-12.66952
31.03229,9.3739,3.65774,-12.20729
31.04232,8.66237,3.21272,-11.45536
31.05236,8.5455,3.13521,-10.52581
31.0624,8.46784,3.19446,-9.50229
31.07244,8.15166,3.18115,-8.88443
31.08247,7.45285,3.1379,-8.53308
31.09251,6.28253,3.02732,-8.25177
31.10255,4.76476,2.61133,-7.88007
31.11259,3.16678,1.86598,-7.60458
31.12262,1.91207,1.19022,-7.64499
31.13266,1.19156,0.96082,-7.77876
31.1427,0.86895,0.94526,-7.95264
31.15274,0.66723,0.77348,-7.99544
31.16277,0.31349,0.63072,-7.80046
31.17281,-0.06404,0.50338,-7.5754
31.18285,-0.33519,0.36078,-7.52378
31.19289,-0.77512,0.28177,-7.56463
31.20292,-1.31038,0.05986,-7.85463
31.21296,-1.52705,-0.22161,-8.21301
31.223,-1.28838,-0.10714,-8.24114
31.23304,-0.81672,0.17882,-8.36744
31.24307,-0.476,0.30107,-8.56825
31.25311,-0.45729,0.05701,-8.59369
31.26315,-0.62593,-0.31409,-8.57453
31.27319,-0.70764,-0.53017,-8.72657
31.28323,-0.61187,-0.57745,-8.77714
31.29326,-0.46477,-0.49066,-8.83475
31.3033,-0.3313,-0.46911,-8.88099
31.31334,-0.29942,-0.56922,-8.82952
31.32338,-0.27339,-0.68758,-8.7731
31.33341,-0.14739,-0.81328,-8.78373
31.34345,0.0808,-0.86101,-8.97676
31.35349,0.30272,-0.76405,-9.1032
31.36353,0.51221,-0.57326,-9.27349
31.37356,0.67068,-0.52628,-9.5376
31.3836,0.5565,-0.57191,-10.03185
31.39364,0.14874,-0.61486,-10.56816
31.40368,-0.17208,-0.72065,-10.51204
31.41371,-0.20949,-0.8049,-10.03679
31.42375,-0.02394,-0.65377,-9.63292
31.43379,0.25798,-0.21159,-9.61392
31.44383,-0.03292,0.60753,-10.53838
31.45386,0.61112,0.2909,-8.06098
31.4639,0.49036,-0.47794,-7.19383
31.47394,-0.16415,-0.64883,-10.55394
31.48398,-0.51026,-0.63476,-12.99588
31.49401,-1.17017,0.12794,-12.43159
31.50405,-1.23675,0.4112,-11.44309
31.51409,-0.81253,0.01392,-11.11643
31.52413,-0.55994,-0.20845,-10.68293
31.53416,-0.76689,-0.22266,-10.12059
31.5442,-1.02562,-0.33399,-9.83059
31.55424,-1.27297,-0.61501,-9.89598
31.56428,-1.51119,-1.01843,-10.44441
31.57431,-1.54067,-1.16343,-10.99821
31.58435,-1.28599,-0.8872,-11.16087
31.59439,-0.85443,-0.44891,-10.52087
31.60443,-0.44622,-0.34821,-9.28127
31.61446,-0.21278,-0.71093,-8.17066
31.6245,-0.32965,-1.19141,-7.64289
31.63454,-0.80296,-1.59319,-7.68808
31.64458,-1.37652,-1.82363,-8.26568
31.65461,-1.67699,-1.76827,-8.78178
31.66465,-1.62671,-1.72727,-9.33529
31.67469,-1.34779,-1.49982,-9.61152
31.68473,-1.00841,-1.22568,-9.42343
31.69476,-0.68923,-1.12827,-8.97975
31.7048,-0.46043,-1.15131,-8.74452
31.71484,-0.44023,-1.12917,-8.87456
31.72488,-0.5764,-1.06003,-9.2889
31.73491,-0.73831,-1.06647,-9.83014
31.74495,-0.84845,-1.00916,-10.13091
31.75499,-0.81552,-0.89947,-10.07974
31.76503,-0.75432,-0.93748,-9.91978
31.77506,-0.81957,-1.04896,-9.58593
31.7851,-0.95304,-1.24409,-9.55616
31.79514,-1.11974,-1.31696,-9.65088
31.80518,-1.02696,-1.29586,-9.4333
31.81521,-0.63416,-1.18378,-8.90448
31.82525,-0.00868,-1.29107,-8.49493
31.83529,0.27758,-1.5489,-8.73809
31.84533,0.13976,-1.72068,-9.63457
31.85536,-0.30257,-1.59918,-9.89314
31.8654,-0.69402,-1.50341,-9.55496
31.87544,-0.77991,-1.08637,-9.69517
31.88548,-0.61456,-1.04013,-10.25302
31.89551,-0.62279,-1.35257,-10.75101
31.90555,-0.54618,-1.08442,-10.68831
31.91559,-0.15637,-0.55052,-9.84541
31.92563,0.24915,-0.6002,-8.86124
