t,ax,ay,az
0.0,-0.07317,-6.22388,-7.7195
0.01004,-0.27892,-6.15849,-7.73387
0.02007,-0.35524,-5.99792,-7.86316
0.03011,-0.40657,-5.96545,-7.9474
0.04015,-0.45984,-6.00122,-7.8669
0.05018,-0.39295,-6.00376,-7.69422
0.06022,-0.28132,-5.99733,-7.63376
0.07025,-0.14724,-6.03518,-7.61281
0.08029,-0.05896,-6.0699,-7.55146
0.09033,-0.01496,-6.02501,-7.47619
0.10036,0.03965,-6.02426,-7.47993
0.1104,0.0395,-6.03952,-7.56119
0.12044,0.00165,-6.06601,-7.74001
0.13047,-0.05582,-6.11344,-7.85777
0.14051,-0.11133,-6.18048,-7.95578
0.15055,-0.12031,-6.15564,-7.97389
0.16058,-0.08799,-6.09983,-7.88201
0.17062,-0.08455,-6.03743,-7.8464
0.18066,-0.03127,-5.89288,-8.0306
0.19069,-0.00269,-5.86834,-8.12203
0.20073,-0.05447,-5.95333,-8.07235
0.21077,-0.14979,-6.06661,-8.09195
0.2208,-0.20785,-6.05972,-8.16991
0.23084,-0.33085,-5.98311,-8.16153
0.24088,-0.36197,-5.81088,-8.16872
0.25091,-0.48243,-5.71077,-7.96865
0.26095,-0.44742,-5.71571,-7.8443
0.27099,-0.38472,-5.72169,-7.78819
0.28102,-0.2677,-5.70823,-7.74449
0.29106,-0.21682,-5.64104,-7.61236
0.3011,-0.24062,-5.74085,-7.45928
0.31113,-0.20381,-5.80953,-7.40811
0.32117,-0.17014,-5.779,-7.40182
0.33121,-0.21084,-5.75012,-7.48158
0.34124,-0.25289,-5.8001,-7.50867
0.35128,-0.30646,-5.85278,-7.52213
0.36131,-0.35449,-5.86864,-7.7008
0.37135,-0.38382,-5.91996,-7.803
0.38139,-0.39504,-5.93942,-7.81093
0.39142,-0.41105,-5.95722,-7.7635
0.40146,-0.41958,-6.0069,-7.74764
0.4115,-0.37185,-6.06287,-7.76829
0.42153,-0.25169,-6.09025,-7.86211
0.43157,-0.1221,-6.04192,-7.83817
0.44161,-0.07108,-5.97264,-7.81871
0.45164,-0.15921,-6.00406,-7.78729
0.46168,-0.28536,-6.08202,-7.65725
0.47172,-0.29149,-6.09309,-7.46422
0.48175,-0.24166,-6.03698,-7.46901
0.49179,-0.27488,-6.04461,-7.53156
0.50183,-0.29224,-5.9686,-7.63676
0.51186,-0.3319,-5.97009,-7.75093
0.5219,-0.45131,-5.98595,-7.71157
0.53194,-0.46462,-5.93612,-7.58633
0.54197,-0.3702,-5.94286,-7.52288
0.55201,-0.25274,-6.01633,-7.69197
0.56205,-0.21174,-6.09743,-7.77577
0.57208,-0.24346,-6.11045,-7.78564
0.58212,-0.38158,-6.13305,-7.80944
0.59216,-0.43694,-6.16582,-7.78145
0.60219,-0.34836,-6.21176,-7.68479
0.61223,-0.19857,-6.18317,-7.57885
0.62227,-0.05581,-6.1323,-7.51196
0.6323,0.00195,-6.15459,-7.5552
0.64234,-0.01781,-6.22403,-7.58603
0.65237,-0.09577,-6.25755,-7.5989
0.66241,-0.09816,-6.22881,-7.57914
0.67245,-0.03382,-6.19724,-7.60713
0.68248,0.03516,-6.1537,-7.71846
0.69252,-0.02005,-6.17779,-7.77322
0.70256,-0.09756,-6.21999,-7.73791
0.71259,-0.13048,-6.22537,-7.73267
0.72263,-0.10175,-6.20278,-7.7017
0.73267,-0.03831,-6.17495,-7.61655
0.7427,0.07706,-6.16582,-7.60623
0.75274,0.17627,-6.19141,-7.62314
0.76278,0.14979,-6.19664,-7.74434
0.77281,0.03472,-6.18961,-7.76215
0.78285,-0.05207,-6.17839,-7.71397
0.79289,-0.09248,-6.19111,-7.66459
0.80292,-0.07332,-6.28179,-7.66145
0.81296,-0.03546,-6.2954,-7.62254
0.823,0.03502,-6.25216,-7.72579
0.83303,0.07108,-6.19709,-7.88949
0.84307,-0.04354,-6.16537,-7.94276
0.85311,-0.1052,-6.10476,-7.8648
0.86314,-0.11103,-6.03967,-7.8027
0.87318,-0.12674,-5.9879,-7.79462
0.88322,-0.16236,-5.98535,-7.80734
0.89325,-0.1872,-5.99882,-7.74135
0.90329,-0.22506,-5.97937,-7.70364
0.91333,-0.26291,-5.92176,-7.54488
0.92336,-0.10355,-5.53255,-7.4328
0.9334,-0.15278,-5.91907,-7.51241
0.94343,-0.29224,-6.14771,-7.32267
0.95347,-0.24556,-6.07379,-7.32581
0.96351,-0.16969,-6.18347,-7.53126
0.97354,-0.20904,-6.13858,-7.49205
0.98358,-0.21159,-6.14113,-7.3689
0.99362,-0.13258,-6.21235,-7.29438
1.00365,-0.11492,-6.30079,-7.27373
1.01369,-0.13527,-6.3991,-7.26835
1.02373,-0.18136,-6.42155,-7.26939
1.03376,-0.1845,-6.422,-7.4744
1.0438,-0.16804,-6.44549,-7.65322
1.05384,-0.17148,-6.46674,-7.62418
1.06387,-0.09457,-6.49951,-7.56672
1.07391,-0.022,-6.54605,-7.51839
1.08395,0.02409,-6.55772,-7.48712
1.09398,-0.00988,-6.50101,-7.34421
1.10402,0.0404,-6.47691,-7.26161
1.11406,0.03247,-6.48305,-7.26431
1.12409,0.01631,-6.52794,-7.28855
1.13413,0.03771,-6.51477,-7.30246
1.14417,0.04729,-6.50041,-7.29932
1.1542,0.0431,-6.51073,-7.20385
1.16424,0.0612,-6.51687,-7.12918
1.17428,0.09726,-6.50355,-7.11497
1.18431,0.14694,-6.47587,-7.08684
1.19435,0.1848,-6.49412,-7.1826
1.20439,0.19827,-6.49397,-7.22675
1.21442,0.23388,-6.47676,-7.2896
1.22446,0.22491,-6.47123,-7.4747
1.23449,0.14021,-6.45671,-7.49909
1.24453,0.05387,-6.51612,-7.41888
1.25457,-0.01975,-6.55473,-7.42397
1.2646,-0.06135,-6.5251,-7.494
1.27464,-0.03097,-6.46449,-7.51555
1.28468,0.03382,-6.39806,-7.51929
1.29471,0.06973,-6.39446,-7.52468
1.30475,0.0814,-6.41721,-7.46662
1.31479,0.09801,-6.39806,-7.43744
1.32482,0.08574,-6.35705,-7.51345
1.33486,0.05522,-6.33955,-7.48906
1.3449,0.08918,-6.34763,-7.44028
1.35493,0.07632,-6.30289,-7.54443
1.36497,0.08275,-6.16402,-7.5558
1.37501,0.04339,-6.0919,-7.49355
1.38504,-0.03337,-6.09294,-7.4527
1.39508,-0.10101,-6.0913,-7.46871
1.40512,-0.12749,-6.00885,-7.48457
1.41515,-0.10684,-5.87582,-7.61266
1.42519,-0.11417,-5.76808,-7.81348
1.43523,-0.14694,-5.6988,-7.79791
1.44526,-0.15906,-5.60258,-7.67761
1.4553,-0.21293,-5.50442,-7.63571
1.46533,-0.2475,-5.46851,-7.6797
1.47537,-0.22146,-5.47314,-7.7216
1.48541,-0.11941,-5.48721,-7.78101
1.49545,-0.08978,-5.4691,-7.84026
1.50548,-0.1037,-5.48392,-7.96042
1.51552,-0.12734,-5.51579,-7.91613
1.52556,-0.17822,-5.55799,-7.88007
1.53559,-0.1652,-5.53749,-7.92226
1.54563,-0.1028,-5.49604,-8.00801
1.55566,-0.04399,-5.43678,-8.06352
1.5657,-0.02454,-5.44262,-8.09719
1.57574,-0.04729,-5.45923,-8.14029
1.58577,-0.07931,-5.48182,-8.16153
1.59581,-0.10056,-5.47389,-8.22872
1.60585,-0.12136,-5.4305,-8.28543
1.61588,-0.16819,-5.34326,-8.34035
1.62592,-0.23852,-5.27652,-8.30668
1.63596,-0.12869,-5.37528,-8.31506
1.64599,-0.0838,-5.45773,-8.31027
1.65603,-0.06075,-5.48721,-8.37716
1.66607,-0.04594,-5.46147,-8.4216
1.6761,-0.07721,-5.40311,-8.35322
1.68614,-0.07617,-5.41778,-8.31776
1.69618,0.00299,-5.43155,-8.38883
1.70621,0.07078,-5.42421,-8.36504
1.71625,0.18495,-5.46641,-8.17949
1.72629,0.26531,-5.44711,-8.07923
1.73632,0.31484,-5.36002,-8.10273
1.74636,0.37335,-5.21622,-8.12203
1.7564,0.48752,-5.09815,-8.18159
1.76643,0.52912,-5.08379,-8.60012
1.77647,0.45969,-5.16205,-8.90658
1.78651,0.37439,-5.23238,-8.8551
1.79654,0.31678,-5.23881,-8.58261
1.80658,0.21533,-5.19003,-8.41427
1.81662,0.13243,-5.15457,-8.53623
1.82665,0.0413,-5.12658,-8.71789
1.83669,-0.00015,-5.05221,-8.80857
1.84672,-0.00269,-5.06583,-8.81829
1.85676,0.0208,-5.15068,-8.80393
1.8668,0.03187,-5.18659,-8.96584
1.87683,0.03202,-5.10878,-9.26227
1.88687,0.1453,-4.97799,-9.63442
1.89691,0.28027,-4.90108,-9.96886
1.90694,0.31603,-4.83958,-10.17281
1.91698,0.28282,-4.8327,-10.30794
1.92702,0.28027,-4.85784,-10.54751
1.93705,0.19213,-4.8303,-10.74922
1.94709,0.13378,-4.74576,-10.76149
1.95713,0.14635,-4.75488,-10.71974
1.96716,0.10026,-4.92278,-10.5707
1.9772,0.14799,-5.11955,-10.48945
1.98724,0.17971,-5.17492,-10.48107
1.99727,0.20979,-5.00313,-10.3211
2.00731,0.32726,-4.6642,-9.98232
2.01735,0.52508,-4.18851,-9.55975
2.02738,0.63476,-3.85826,-8.93411
2.03742,0.73472,-3.7586,-8.39512
2.04746,0.60169,-3.6124,-7.92406
2.05749,0.74579,-3.54686,-7.94621
2.06753,0.76869,-3.97542,-7.98317
2.07757,0.57955,-2.90192,-7.63855
2.0876,0.21608,-2.87544,-7.89084
2.09764,-0.29374,-3.86888,-7.75422
2.10768,-0.56473,-4.34727,-7.46991
2.11771,-0.69103,-4.60435,-7.30037
2.12775,-0.59167,-4.73124,-6.95261
2.13779,-0.3735,-4.86158,-6.7922
2.14782,-0.33549,-5.03845,-7.06948
2.15786,-0.41869,-5.19287,-7.51256
2.16789,-0.42168,-5.12539,-7.85912
2.17793,-0.3524,-5.0359,-8.20882
2.18797,-0.52029,-5.05206,-8.52037
2.198,-0.63641,-5.11387,-8.84134
2.20804,-0.52897,-5.17956,-9.42807
2.21808,-0.37873,-5.48347,-10.74473
2.22811,-0.62085,-5.60423,-10.92519
2.23815,-0.8037,-5.43888,-10.78318
2.24819,-0.88196,-5.17866,-11.13394
2.25822,-0.88481,-4.95136,-11.20606
2.26826,-0.82974,-4.77643,-10.93986
2.2783,-0.83333,-4.67677,-10.42106
2.28833,-0.87448,-4.6449,-9.64729
2.29837,-0.88585,-4.68755,-9.02943
2.30841,-0.84919,-4.78167,-8.52336
2.31844,-0.8251,-4.96842,-8.06098
2.32848,-0.78889,-5.08843,-7.74644
2.33852,-0.4531,-4.78197,-7.81677
2.34855,0.04863,-4.14436,-8.33841
2.35859,0.23269,-3.88429,-8.36025
2.36863,0.21278,-3.87995,-8.11021
2.37866,0.22595,-3.88085,-7.95773
2.3887,0.19887,-3.88474,-7.92571
2.39874,0.26261,-3.86649,-8.08552
2.40877,0.47046,-3.91676,-8.39931
2.41881,0.69492,-4.15319,-8.22438
2.42884,0.84815,-4.48584,-7.57944
2.43888,0.91354,-4.62395,-7.09103
2.44892,0.41285,-4.52414,-7.1624
2.45895,0.0217,-4.46638,-7.32476
2.46899,-0.06958,-4.32677,-7.52587
2.47903,-0.09951,-3.89387,-8.0092
2.48906,-0.02813,-3.5913,-8.12023
2.4991,0.09547,-3.60806,-7.95833
2.50914,0.09382,-3.81621,-7.69481
2.51917,-0.00988,-3.97827,-7.39344
2.52921,-0.07632,-4.06236,-7.30576
2.53925,-0.15787,-4.23385,-7.29349
2.54928,-0.21159,-4.36119,-7.20685
2.55932,-0.23523,-4.33455,-7.02713
2.56936,-0.16909,-4.32064,-6.84682
2.57939,-0.04549,-4.2928,-6.86358
2.58943,0.03127,-4.19718,-7.27314
2.59947,0.03098,-4.0453,-7.82021
2.6095,0.07961,-3.85257,-8.25311
2.61954,0.15398,-3.7357,-8.64935
2.62958,0.05911,-3.72029,-8.87052
2.63961,-0.1016,-3.68737,-8.94534
2.64965,-0.17358,-3.70278,-9.07941
2.65969,-0.23718,-3.78015,-9.18131
2.66972,-0.26905,-3.81785,-9.2069
2.67976,-0.15787,-3.78957,-9.36821
2.6898,-0.01811,-3.71011,-9.57142
2.69983,0.05641,-3.60447,-9.68365
2.70987,-0.02903,-3.51125,-9.66838
2.71991,-0.20785,-3.43373,-9.59671
2.72994,-0.31693,-3.51603,-9.51097
2.73998,-0.33698,-3.60522,-9.44228
2.75001,-0.32426,-3.63515,-9.23743
2.76005,-0.27219,-3.72657,-8.98649
2.77009,-0.19588,-3.92619,-8.61613
2.78012,-0.14515,-4.07358,-8.23246
2.79016,-0.07736,-4.20751,-8.16228
2.8002,-0.05402,-4.22936,-8.43896
2.81023,-0.01601,-4.04366,-8.86513
2.82027,-0.01137,-3.78448,-9.17279
2.83031,-0.15128,-3.61689,-9.2503
2.84034,-0.3093,-3.5298,-9.168
2.85038,-0.29868,-3.39423,-9.12296
2.86042,-0.205,-3.21601,-9.32616
2.87045,-0.11642,-3.11381,-9.61452
2.88049,-0.06719,-3.0348,-9.83463
2.89053,-0.06779,-2.96013,-9.87444
2.90056,-0.09562,-2.88007,-9.83583
2.9106,-0.15054,-2.74331,-9.76535
2.92064,-0.20171,-2.64245,-9.72974
2.93067,-0.17403,-2.58858,-9.77358
2.94071,-0.1447,-2.67058,-9.93115
2.95075,-0.0636,-2.66475,-9.98921
2.96078,-0.02289,-2.51122,-9.83239
2.97082,-0.06584,-2.40034,-9.70849
2.98086,-0.12181,-2.31893,-9.76939
2.99089,-0.11313,-2.28646,-9.87144
3.00093,-0.08544,-2.34931,-10.00447
3.01097,-0.17717,-2.49296,-9.94477
3.021,-0.16655,-2.54863,-9.63427
3.03104,-0.09607,-2.50254,-9.23159
3.04107,-0.05297,-2.48773,-9.02434
3.05111,-0.06719,-2.51137,-9.1267
3.06115,-0.15263,-2.5404,-9.3522
3.07118,-0.18495,-2.49281,-9.44094
3.08122,-0.18899,-2.41231,-9.45545
3.09126,-0.13991,-2.30487,-9.50827
3.10129,-0.11088,-2.22766,-9.54912
3.11133,-0.15877,-2.26626,-9.4354
3.12137,-0.15906,-2.31325,-9.36447
3.1314,-0.09487,-2.2926,-9.38572
3.14144,-0.0407,-2.23184,-9.5367
3.15148,-0.01885,-2.1678,-9.58309
3.16151,-0.03083,-2.10016,-9.63038
3.17155,-0.06584,-2.10016,-9.62275
3.18159,-0.11657,-2.15493,-9.48164
3.19162,-0.13004,-2.20835,-9.27544
3.20166,-0.09996,-2.19309,-9.18012
3.2117,-0.08978,-2.16152,-9.16575
3.22173,-0.06883,-2.13264,-9.19448
3.23177,-0.03906,-2.09208,-9.31674
3.24181,-0.00569,-1.99213,-9.36238
3.25184,0.07721,-1.85251,-9.50932
3.26188,0.1025,-1.79715,-9.61003
3.27192,0.14724,-1.79341,-9.63247
3.28195,0.15203,-1.82094,-9.60329
3.29199,0.11357,-1.86748,-9.47086
3.30203,0.09502,-1.88454,-9.32167
3.31206,0.06255,-1.88932,-9.27858
3.3221,0.04863,-1.90339,-9.3118
3.33214,0.02693,-1.89082,-9.3724
3.34217,-0.00224,-1.83112,-9.55361
3.35221,-0.02679,-1.81211,-9.73557
3.36225,-0.03531,-1.79595,-9.81144
3.37228,-0.07198,-1.80478,-9.73288
3.38232,-0.07572,-1.79999,-9.60883
3.39235,-0.02768,-1.81376,-9.60254
3.40239,0.00733,-1.81286,-9.59042
3.41243,-0.03142,-1.83246,-9.57187
3.42246,-0.1016,-1.89097,-9.54643
3.4325,-0.09008,-1.88828,-9.59312
3.44254,-0.07123,-1.83815,-9.6199
3.45257,-0.04684,-1.75989,-9.56962
3.46261,-0.0015,-1.70916,-9.57396
3.47265,0.05312,-1.66786,-9.65013
3.48268,0.08694,-1.64871,-9.74081
3.49272,0.11013,-1.63973,-9.9105
3.50276,0.09786,-1.60456,-9.95539
3.51279,0.08006,-1.59125,-9.83448
3.52283,0.10385,-1.57344,-9.73871
3.53287,0.12121,-1.57389,-9.79677
3.5429,0.07841,-1.56506,-9.7459
3.55294,0.03696,-1.57374,-9.7034
3.56298,0.04295,-1.53244,-9.69876
3.57301,0.03831,-1.49578,-9.77433
3.58305,0.04833,-1.47468,-9.84466
3.59309,0.00105,-1.4666,-9.76026
3.60312,-0.01661,-1.50191,-9.60643
3.61316,0.01466,-1.54635,-9.6211
3.6232,0.0416,-1.5088,-9.75128
3.63323,0.02723,-1.44819,-9.83089
3.64327,0.01227,-1.43562,-9.82146
3.65331,0.00045,-1.44146,-9.74515
3.66334,-0.00209,-1.42141,-9.71956
3.67338,-0.02843,-1.4033,-9.73632
3.68342,-0.05402,-1.447,-9.77238
3.69345,-0.05282,-1.46001,-9.76146
3.70349,-0.01047,-1.40884,-9.72734
3.71352,0.02753,-1.39058,-9.73827
3.72356,0.01287,-1.41033,-9.74605
3.7336,-0.00075,-1.41602,-9.71283
3.74363,0.02813,-1.41078,-9.67003
3.75367,0.04983,-1.38953,-9.58534
3.76371,0.0416,-1.37936,-9.56379
3.77374,0.02723,-1.36469,-9.62469
3.78378,0.01781,-1.33761,-9.62993
3.79382,-0.02289,-1.3406,-9.663
3.80385,-0.05133,-1.32594,-9.69307
3.81389,-0.03816,-1.3228,-9.67826
3.82393,-0.03217,-1.36036,-9.63262
3.83396,-0.00808,-1.38939,-9.61526
3.844,0.01646,-1.3816,-9.67676
3.85404,0.03247,-1.35317,-9.63412
3.86407,0.02798,-1.32504,-9.58968
3.87411,0.00239,-1.35317,-9.62155
3.88415,-0.0428,-1.35377,-9.56394
3.89418,-0.04549,-1.36335,-9.49061
3.90422,-0.03262,-1.36559,-9.49825
3.91426,-0.01332,-1.36649,-9.55676
3.92429,0.01407,-1.36589,-9.61766
3.93433,0.03187,-1.3638,-9.6416
3.94437,0.01945,-1.36006,-9.67287
3.9544,0.03561,-1.31322,-9.71776
3.96444,0.04354,-1.2607,-9.7842
3.97448,0.06285,-1.25651,-9.79243
3.98451,0.05656,-1.2818,-9.76355
3.99455,0.05088,-1.32429,-9.74724
4.00459,0.02185,-1.36993,-9.70968
4.01462,-0.00299,-1.34809,-9.63217
4.02466,0.02574,-1.30274,-9.65282
4.03469,0.02544,-1.28269,-9.72764
4.04473,0.03068,-1.24858,-9.73916
4.05477,0.05267,-1.22838,-9.79333
4.0648,0.05043,-1.24603,-9.80306
4.07484,0.082,-1.21236,-9.76445
4.08488,0.15877,-1.24603,-9.79662
4.09491,0.17463,-1.38564,-9.89434
4.10495,0.13871,-1.60412,-9.77373
4.11499,0.08305,-1.72816,-9.65073
4.12502,0.07287,-0.79592,-10.60706
4.13506,0.35748,-0.48827,-9.9922
4.1451,0.58523,-0.62982,-9.23399
4.15513,0.6394,-1.00467,-9.08285
4.16517,0.86446,-1.80478,-9.45395
4.17521,0.53959,-1.56042,-9.69068
4.18524,0.25094,-1.42964,-10.00492
4.19528,0.35689,-1.362,-10.33188
4.20532,0.29015,-1.2791,-10.37108
4.21535,0.35539,-1.26534,-10.33996
4.22539,0.3934,-1.22658,-10.20484
4.23543,0.42018,-1.1766,-10.08124
4.24546,0.46732,-1.12527,-10.0148
4.2555,0.46552,-1.10418,-10.08168
4.26554,0.43739,-1.11645,-10.1562
4.27557,0.38307,-1.14832,-10.15351
4.28561,0.34686,-1.21835,-10.11176
4.29565,0.32322,-1.29811,-10.02123
4.30568,0.28715,-1.42455,-9.88177
4.31572,0.22146,-1.548,-9.75308
4.32576,0.1848,-1.65933,-9.67033
4.33579,0.17942,-1.69869,-9.59117
4.34583,0.205,-1.67115,-9.55331
4.35586,0.26321,-1.66202,-9.64459
4.3659,0.29928,-1.62536,-9.71747
4.37594,0.33339,-1.53364,-9.7851
4.38597,0.33264,-1.466,-9.80411
4.39601,0.34491,-1.38175,-9.76101
4.40605,0.38756,-1.3231,-9.66255
4.41608,0.42976,-1.30828,-9.65402
4.42612,0.46328,-1.32609,-9.67931
4.43616,0.4739,-1.33761,-9.65148
4.44619,0.49979,-1.32998,-9.56813
4.45623,0.54453,-1.34629,-9.46742
4.46627,0.58643,-1.3626,-9.34292
4.4763,0.62982,-1.38669,-9.30028
4.48634,0.66963,-1.42096,-9.29294
4.49638,0.66454,-1.42829,-9.23414
4.50641,0.70719,-1.41303,-9.16231
4.51645,0.70404,-1.16478,-8.8771
4.52649,0.28192,-0.8266,-8.78657
4.53652,-0.02693,-0.87329,-9.10665
4.54656,0.00673,-1.11764,-9.6636
4.5566,0.2282,-1.33282,-10.15201
4.56663,0.32037,-1.34285,-10.6123
4.57667,0.32202,-1.02921,-10.7971
4.58671,0.12794,-0.78545,-10.52162
4.59674,0.06764,-0.90531,-10.2201
4.60678,0.38217,-1.23526,-9.67706
4.61682,0.60035,-1.41527,-8.96913
4.62685,0.62025,-1.5052,-8.76038
4.63689,0.60349,-1.59589,-8.88458
4.64693,0.58733,-1.51523,-8.9184
4.65696,0.54992,-1.33507,-9.02075
4.667,0.46492,-1.20832,-9.31719
4.67703,0.38816,-1.16343,-9.61766
4.68707,0.36422,-1.21117,-9.65552
4.69711,0.33474,-1.29661,-9.55481
4.70714,0.30152,-1.39836,-9.42837
4.71718,0.28461,-1.50072,-9.30506
4.72722,0.22042,-1.5899,-9.24177
4.73725,0.19707,-1.65679,-9.21678
4.74729,0.26441,-1.74492,-9.17638
4.75733,0.32756,-1.75779,-9.06714
4.76736,0.32531,-1.72712,-9.01357
4.7774,0.30466,-1.72682,-9.08255
4.78744,0.29688,-1.75061,-9.15618
4.79747,0.29479,-1.78533,-9.24132
4.80751,0.32367,-1.76453,-9.36881
4.81755,0.35015,-1.69764,-9.46652
4.82758,0.353,-1.58631,-9.56184
4.83762,0.39714,-1.49862,-9.62454
4.84766,0.45639,-1.45538,-9.59476
4.85769,0.55112,-1.39462,-9.52877
4.86773,0.65347,-1.35751,-9.50603
4.87777,0.72993,-1.31576,-9.48239
4.8878,0.7413,-1.2812,-9.36013
4.89784,0.7214,-1.33941,-9.28576
4.90788,0.72709,-1.45478,-9.2295
4.91791,0.76345,-1.60382,-9.25673
4.92795,0.77976,-1.71245,-9.29609
4.93799,0.78126,-1.78308,-9.34412
4.94802,0.76944,-1.80613,-9.41355
4.95806,0.79368,-1.78877,-9.36716
4.96809,0.81193,-1.73684,-9.31704
4.97813,0.87628,-1.68387,-9.39126
4.98817,0.99165,-1.64721,-9.52279
4.9982,1.07978,-1.59723,-9.75772
5.00824,1.10358,-1.52705,-9.94626
5.01828,1.10837,-1.45807,-10.0968
5.02831,1.16867,-1.41901,-10.14812
5.03835,1.2378,-1.43667,-10.10129
5.04839,1.30245,-1.52301,-10.03799
5.05842,1.27611,-1.59753,-9.93594
5.06846,1.20024,-1.66367,-9.72345
5.0785,1.12513,-1.76797,-9.60718
5.08853,0.9704,-1.8582,-9.58309
5.09857,0.78141,-1.88394,-9.63247
5.10861,0.59032,-1.83516,-9.7435
5.11864,0.48004,-1.70856,-9.96571
5.12868,0.41539,-1.46256,-10.31676
5.13872,0.39639,-1.22733,-10.55035
5.14875,0.37813,-1.00182,-10.65809
5.15879,0.38232,-0.81538,-10.68397
5.16883,0.41554,-0.6801,-10.49738
5.17886,0.44772,-0.60513,-10.16907
5.1889,0.47315,-0.61546,-9.84286
5.19894,0.5146,-0.70719,-9.58908
5.20897,0.54752,-0.87194,-9.41864
5.21901,0.5351,-1.08517,-9.36357
5.22905,0.5173,-1.28643,-9.31614
5.23908,0.52792,-1.44445,-9.30237
5.24912,0.58508,-1.54695,-9.30641
5.25916,0.66948,-1.58242,-9.25254
5.26919,0.7645,-1.58062,-9.08884
5.27923,0.85518,-1.5703,-8.92169
5.28926,0.95918,-1.57179,-8.86169
5.2993,1.03459,-1.58586,-8.86199
5.30934,1.09176,-1.59274,-8.89356
5.31937,1.13994,-1.57134,-8.96449
5.32941,1.19201,-1.53678,-9.05038
5.33945,1.20922,-1.488,-9.2289
5.34948,1.17017,-1.45538,-9.44213
5.35952,1.13306,-1.41437,-9.6012
5.36956,1.07964,-1.4039,-9.83104
5.37959,1.03654,-1.39776,-10.00387
5.38963,0.99464,-1.39896,-10.06373
5.39967,1.00123,-1.3852,-10.13929
5.4097,0.97594,-1.33492,-10.4242
5.41974,0.87299,-1.32579,-10.61843
5.42978,0.75821,-1.30065,-10.38724
5.43981,0.66843,-1.30559,-10.04188
5.44985,0.65257,-1.37322,-9.8276
5.45989,0.59675,-1.45433,-9.72225
5.46992,0.56368,-1.52989,-9.65237
5.47996,0.53331,-1.57748,-9.66539
5.49,0.44487,-1.6101,-9.77059
5.50003,0.35569,-1.60711,-9.84406
5.51007,0.2683,-1.57479,-9.81907
5.52011,0.2258,-1.50865,-9.78944
5.53014,0.23403,-1.41243,-9.76894
5.54018,0.26336,-1.34539,-9.7637
5.55022,0.27174,-1.29257,-9.74934
5.56025,0.27429,-1.26638,-9.73842
5.57029,0.23044,-1.21536,-9.71073
5.58033,0.2053,-1.19231,-9.66404
5.59036,0.19603,-1.20862,-9.65881
5.6004,0.17433,-1.22194,-9.61377
5.61043,0.208,-1.25546,-9.62604
5.62047,0.24226,-1.25995,-9.64519
5.63051,0.29344,-1.23331,-9.66285
5.64054,0.32067,-1.19935,-9.63113
5.65058,0.38128,-1.18244,-9.57396
5.66062,0.4347,-1.17974,-9.52458
5.67065,0.49799,-1.18259,-9.46159
5.68069,0.53256,-1.19141,-9.4351
5.69073,0.5574,-1.198,-9.44228
5.70076,0.59601,-1.22179,-9.53431
5.7108,0.63476,-1.22538,-9.57202
5.72084,0.63551,-1.20114,-9.56184
5.73087,0.66439,-1.18558,-9.61107
5.74154,0.70853,-1.18767,-9.71028
5.75157,0.72185,-1.18318,-9.67377
5.76161,0.73023,-1.20174,-9.60823
5.77165,0.69911,-1.24184,-9.62544
5.78168,0.6807,-1.25681,-9.59835
5.79172,0.65751,-1.26728,-9.5807
5.80176,0.65556,-1.26848,-9.6422
5.81179,0.64269,-1.26563,-9.73138
5.82183,0.62638,-1.24783,-9.83388
5.83187,0.59122,-1.2393,-9.89553
5.8419,0.56623,-1.24259,-9.94372
5.85194,0.53645,-1.23855,-9.90556
5.86198,0.49994,-1.2369,-9.87249
5.87201,0.48318,-1.23017,-9.90601
5.88205,0.46014,-1.22897,-9.94282
5.89209,0.43395,-1.22658,-9.98547
5.90212,0.36167,-1.21296,-10.02901
5.91216,0.3301,-1.22508,-9.95015
5.9222,0.31963,-1.23855,-9.87189
5.93223,0.30167,-1.26384,-9.84511
5.94227,0.30616,-1.261,-9.86845
5.95231,0.30736,-1.24932,-9.82461
5.96234,0.32082,-1.2372,-9.81144
5.97238,0.31753,-1.23331,-9.77014
5.98242,0.30451,-1.21221,-9.70235
5.99245,0.27324,-1.23376,-9.67901
6.00249,0.24256,-1.23915,-9.69143
6.01252,0.23957,-1.27042,-9.71358
6.02256,0.23942,-1.25127,-9.65896
6.0326,0.28177,-1.23705,-9.59656
6.04263,0.31678,-1.22613,-9.54748
6.05267,0.35509,-1.18693,-9.52548
6.06271,0.35868,-1.18393,-9.6021
6.07274,0.36467,-1.21177,-9.69906
6.08278,0.37424,-1.19471,-9.72136
6.09282,0.4145,-1.18034,-9.73213
6.10285,0.44547,-1.18468,-9.72779
6.11289,0.47061,-1.18184,-9.69906
6.12293,0.47061,-1.16268,-9.69547
6.13296,0.45984,-1.1564,-9.663
6.143,0.47001,-1.16508,-9.64788
6.15304,0.48438,-1.13949,-9.66973
6.16307,0.49635,-1.14323,-9.75458
6.17311,0.52463,-1.14877,-9.78705
6.18315,0.5369,-1.13246,-9.79662
6.19318,0.53495,-1.1163,-9.77508
6.20322,0.52538,-1.12468,-9.70699
6.21326,0.55082,-1.13261,-9.69263
6.22329,0.56189,-1.15849,-9.71552
6.23333,0.54393,-1.17825,-9.70116
6.24337,0.53421,-1.18169,-9.65342
6.2534,0.53271,-1.17525,-9.6814
6.26344,0.54633,-1.15939,-9.71148
6.27348,0.55531,-1.14877,-9.68021
6.28351,0.55366,-1.14039,-9.65567
6.29355,0.5378,-1.15655,-9.64758
6.30359,0.54483,-1.15401,-9.62574
6.31362,0.53885,-1.18169,-9.59596
6.32366,0.52283,-1.18872,-9.60614
6.33369,0.53301,-1.18737,-9.53296
6.34373,0.53675,-1.17047,-9.46069
6.35377,0.52747,-1.15924,-9.49106
6.3638,0.50413,-1.14233,-9.56843
6.37384,0.45714,-1.13321,-9.68484
6.38388,0.40911,-1.13051,-9.7637
6.39391,0.36811,-1.13365,-9.77972
6.40395,0.37559,-1.14218,-9.76655
6.41399,0.40372,-1.14533,-9.71896
6.42465,0.4148,-1.1573,-9.65896
6.43469,0.4148,-1.1573,-9.65896
6.44472,0.40073,-1.14473,-9.65611
6.45476,0.39385,-1.14922,-9.64998
6.4648,0.38621,-1.13814,-9.69562
6.47483,0.37679,-1.15834,-9.77717
6.48487,0.38517,-1.18932,-9.81129
6.49491,0.39699,-1.20159,-9.74679
6.50494,0.42662,-1.22254,-9.67587
6.51498,0.44876,-1.21551,-9.61422
6.52502,0.4733,-1.19486,-9.58519
6.53505,0.47495,-1.16194,-9.63636
6.54509,0.4763,-1.16972,-9.67931
6.55513,0.46313,-1.15864,-9.74081
6.56516,0.44787,-1.1356,-9.78675
6.5752,0.44592,-1.14697,-9.81727
6.58524,0.45056,-1.14338,-9.82969
6.59527,0.46148,-1.13455,-9.85438
6.60531,0.47405,-1.1338,-9.81922
6.61535,0.46837,-1.11555,-9.7854
6.62538,0.48976,-1.09565,-9.7459
6.63542,0.50039,-1.09625,-9.73198
6.64546,0.49964,-1.10208,-9.71627
6.65549,0.50518,-1.10956,-9.70924
6.66553,0.48647,-1.13515,-9.71133
6.67557,0.4763,-1.13021,-9.682
6.6856,0.48243,-1.13216,-9.70041
6.69564,0.46822,-1.11166,-9.70385
6.70568,0.47271,-1.09849,-9.67108
6.71571,0.46822,-1.0925,-9.67632
6.72575,0.47794,-1.1136,-9.64384
6.73578,0.49156,-1.11525,-9.57366
6.74582,0.49964,-1.13246,-9.48987
6.75586,0.51086,-1.1341,-9.50707
6.76589,0.53241,-1.12198,-9.47311
6.77593,0.53436,-1.12812,-9.46772
6.78597,0.5176,-1.17211,-9.54748
6.796,0.49665,-1.19441,-9.63307
6.80604,0.47525,-1.17885,-9.67961
6.81608,0.44787,-1.15715,-9.71492
6.82611,0.45834,-1.14069,-9.76191
6.83615,0.45744,-1.14697,-9.8258
6.84619,0.45146,-1.13545,-9.87683
6.85622,0.45819,-1.13081,-9.88656
6.86626,0.4751,-1.11136,-9.87728
6.8763,0.49859,-1.10941,-9.86411
6.88633,0.52538,-1.08816,-9.80336
6.89637,0.54648,-1.10058,-9.77582
6.90641,0.55291,-1.11345,-9.75712
6.91644,0.54797,-1.12019,-9.7043
6.92648,0.5155,-1.11989,-9.6829
6.93652,0.48572,-1.15894,-9.67527
6.94655,0.47061,-1.17376,-9.69786
6.95659,0.46298,-1.15715,-9.72076
6.96663,0.45984,-1.12857,-9.71791
6.97666,0.4739,-1.1133,-9.66434
6.9867,0.495,-1.10373,-9.66509
6.99674,0.49455,-1.11704,-9.67257
7.00677,0.48168,-1.10088,-9.71238
7.01681,0.46777,-1.10148,-9.68021
7.02685,0.46702,-1.1154,-9.65492
7.03688,0.47719,-1.14817,-9.67721
7.04692,0.47929,-1.15326,-9.71118
7.05695,0.46358,-1.14353,-9.68859
7.06699,0.46193,-1.14144,-9.70056
7.07703,0.47315,-1.12991,-9.71148
7.08706,0.45759,-1.12722,-9.70699
7.0971,0.47465,-1.0961,-9.723
7.10714,0.46477,-1.10492,-9.75473
7.11717,0.45505,-1.10852,-9.73063
7.12721,0.44442,-1.13799,-9.73273
7.13725,0.42946,-1.15131,-9.68799
7.14728,0.44068,-1.18124,-9.70609
7.15732,0.43978,-1.1986,-9.71507
7.16736,0.44308,-1.17406,-9.66853
7.17739,0.44846,-1.15236,-9.6217
7.18743,0.43754,-1.14652,-9.66764
7.19747,0.41674,-1.1362,-9.73991
7.2075,0.40163,-1.14338,-9.78331
7.21754,0.40507,-1.18708,-9.76655
7.22758,0.4338,-1.21236,-9.6844
7.23761,0.45849,-1.23182,-9.56424
7.24765,0.45505,-1.2372,-9.46518
7.25769,0.46418,-1.21805,-9.40772
7.26772,0.4528,-1.18528,-9.52428
7.27776,0.42422,-1.12857,-9.63127
7.2878,0.40522,-1.06123,-9.71747
7.29783,0.39519,-1.04926,-9.82625
7.30787,0.36407,-1.0732,-9.89568
7.31791,0.35419,-1.09385,-9.9313
7.32794,0.35599,-1.11839,-9.88701
7.33798,0.3711,-1.13216,-9.83972
7.34802,0.39968,-1.13141,-9.77134
7.35805,0.44487,-1.10582,-9.72704
7.36809,0.4763,-1.09684,-9.67168
7.37812,0.53211,-1.08143,-9.66659
7.38816,0.55875,-1.09161,-9.71747
7.3982,0.60947,-1.0934,-9.67781
7.40823,0.62309,-1.11211,-9.54643
7.41827,0.61396,-1.11465,-9.41774
7.42831,0.59227,-1.13276,-9.36073
7.43834,0.56518,-1.12513,-9.37928
7.44838,0.54782,-1.12692,-9.47879
7.45842,0.517,-1.14353,-9.64205
7.46845,0.49545,-1.13769,-9.69861
7.47849,0.47884,-1.15266,-9.65671
7.48853,0.4558,-1.16433,-9.59895
7.49856,0.45669,-1.19126,-9.49705
7.5086,0.44981,-1.1971,-9.41325
7.51864,0.45191,-1.16822,-9.42178
7.52867,0.42707,-1.19231,-9.53835
7.53871,0.39609,-1.16493,-9.67871
7.54875,0.35225,-1.14159,-9.81383
7.55878,0.36571,-1.1341,-9.87773
7.56882,0.38352,-1.13096,-9.8472
7.57886,0.40821,-1.1347,-9.79258
7.58889,0.42961,-1.17211,-9.7845
7.59893,0.40193,-1.21625,-9.76415
7.60897,0.39205,-1.25217,-9.72076
7.619,0.38921,-1.30215,-9.67108
7.62904,0.3943,-1.34524,-9.6621
7.63908,0.4118,-1.36245,-9.69008
7.64911,0.40522,-1.33686,-9.71133
7.65915,0.39235,-1.33492,-9.74515
7.66919,0.3919,-1.30993,-9.77747
7.67922,0.36736,-1.2996,-9.81189
7.68926,0.34013,-1.29856,-9.84406
7.6993,0.31514,-1.31591,-9.80919
7.70933,0.3286,-1.31696,-9.80695
7.71937,0.30451,-1.29242,-9.76819
7.72941,0.25364,-1.27536,-9.73856
7.73944,0.17702,-1.26758,-9.78166
7.74948,0.14141,-1.25815,-9.79962
7.75951,0.10265,-1.24962,-9.80785
7.76955,0.06,-1.23227,-9.74949
7.77959,0.06449,-1.26115,-9.74575
7.78962,0.0422,-1.30319,-9.73363
7.79966,0.0214,-1.31995,-9.68425
7.8097,0.03965,-1.33192,-9.67377
7.81973,0.0603,-1.32744,-9.69068
7.82977,0.07871,-1.32115,-9.67796
7.83981,0.12121,-1.32504,-9.65866
7.84984,0.15577,-1.33387,-9.57142
7.85988,0.19094,-1.33851,-9.53865
7.86992,0.22191,-1.32369,-9.56813
7.87995,0.26471,-1.31965,-9.61407
7.88999,0.2876,-1.27746,-9.682
7.90003,0.31035,-1.25022,-9.75488
7.91006,0.3313,-1.24693,-9.75966
7.9201,0.37394,-1.22912,-9.73258
7.93014,0.38696,-1.22897,-9.68993
7.94017,0.38517,-1.23631,-9.67452
7.95021,0.39444,-1.25202,-9.66853
7.96025,0.38427,-1.26489,-9.72614
7.97028,0.37709,-1.27132,-9.76071
7.98032,0.33175,-1.261,-9.79827
7.99036,0.30002,-1.2812,-9.81458
8.00039,0.27833,-1.27611,-9.75098
8.01043,0.26426,-1.31038,-9.72749
8.02047,0.23433,-1.31232,-9.67198
8.0305,0.22416,-1.31801,-9.67946
8.04054,0.23328,-1.34255,-9.7664
8.05058,0.22326,-1.35766,-9.827
8.06061,0.22057,-1.33477,-9.83269
8.07065,0.22087,-1.31157,-9.7444
8.08069,0.23747,-1.28928,-9.67018
8.09072,0.25663,-1.28973,-9.59416
8.10076,0.2671,-1.29092,-9.56095
8.1108,0.27234,-1.29885,-9.55316
8.12083,0.2882,-1.2782,-9.59791
8.13087,0.3111,-1.2818,-9.68993
8.1409,0.30765,-1.24768,-9.72959
8.15094,0.31529,-1.21745,-9.64848
8.16098,0.32771,-1.2191,-9.56169
8.17101,0.3527,-1.21521,-9.51052
8.18105,0.39549,-1.21311,-9.47849
8.19109,0.37694,-1.20204,-9.53221
8.20112,0.40657,-1.20533,-9.65192
8.21116,0.41869,-1.19007,-9.65252
8.2212,0.41958,-1.17645,-9.61751
8.23123,0.41105,-1.14652,-9.56828
8.24127,0.43066,-1.12902,-9.55586
8.25131,0.45191,-1.12079,-9.59506
8.26134,0.41988,-1.12213,-9.67901
8.27138,0.40103,-1.13635,-9.76041
8.28142,0.39998,-1.16463,-9.78675
8.29145,0.4112,-1.20219,-9.80231
8.30149,0.4121,-1.20503,-9.79258
8.31153,0.39355,-1.21446,-9.77268
8.32156,0.39115,-1.20473,-9.73138
8.3316,0.3696,-1.21117,-9.72465
8.34164,0.36137,-1.20219,-9.73692
8.35167,0.34147,-1.17944,-9.79887
8.36171,0.32157,-1.19426,-9.81099
8.37175,0.30436,-1.21551,-9.83299
8.38178,0.2891,-1.2387,-9.83867
8.39182,0.29149,-1.2785,-9.79872
8.40186,0.32097,-1.27327,-9.73587
8.41189,0.3307,-1.26967,-9.67811
8.42193,0.32337,-1.27805,-9.63741
8.43197,0.30825,-1.29137,-9.59342
8.442,0.30317,-1.31921,-9.54733
8.45204,0.31214,-1.3424,-9.59027
8.46208,0.32352,-1.32833,-9.64205
8.47211,0.30287,-1.32714,-9.69532
8.48215,0.30975,-1.29422,-9.67482
8.49219,0.33743,-1.26698,-9.63292
8.50222,0.33878,-1.23242,-9.63472
8.51226,0.34566,-1.1962,-9.63337
8.5223,0.36407,-1.16164,-9.60434
8.53233,0.38382,-1.18453,-9.60299
8.54237,0.34641,-1.20593,-9.69233
8.55241,0.33773,-1.20443,-9.74036
8.56244,0.3521,-1.21581,-9.7673
8.57248,0.35599,-1.18648,-9.76999
8.58251,0.36706,-1.18648,-9.7655
8.59255,0.38247,-1.18603,-9.6808
8.60259,0.35823,-1.18603,-9.61077
8.61262,0.29868,-1.1995,-9.68739
8.62266,0.249,-1.20832,-9.82506
8.6327,0.21727,-1.20309,-9.90721
8.64273,0.25977,-1.1959,-9.96197
8.65277,0.35509,-1.16657,-9.99878
8.66281,0.38981,-1.11764,-9.98651
8.67284,0.34596,-1.05016,-9.86965
8.68288,0.44622,-1.12602,-9.81997
8.69292,0.53106,-1.18244,-9.81084
8.70295,0.59316,-1.19441,-9.81967
8.71299,0.61262,-1.16029,-9.82969
8.72303,0.56608,-1.15116,-9.78091
8.73306,0.4534,-1.26459,-9.5985
8.7431,0.3491,-1.65828,-9.30282
8.75314,0.34566,-2.15628,-9.22501
8.76317,0.31843,-2.58783,-9.12924
8.77321,0.47495,-2.61462,-9.19343
8.78325,0.69432,-2.41455,-9.43271
8.79328,0.77004,-2.19294,-9.78256
8.80332,0.8447,-2.11827,-10.0124
8.81336,0.95603,-2.17977,-9.93579
8.82339,1.04926,-2.41365,-9.49017
8.83343,1.1335,-2.61896,-8.80722
8.84347,1.22389,-2.72101,-8.39407
8.8535,1.30993,-2.79508,-8.51393
8.86354,1.43832,-2.24636,-9.55541
8.87358,1.51299,-0.9297,-10.98325
8.88361,1.80927,-1.06841,-11.91295
8.89365,1.49802,-1.46361,-10.91546
8.90369,1.42605,-1.32504,-9.33559
8.91372,1.80149,-1.62746,-7.50567
8.92376,2.50882,-2.19563,-5.96785
8.9338,3.03704,-2.48309,-6.91146
8.94383,2.83698,-2.53052,-9.18954
8.95387,2.39899,-2.40333,-10.35747
8.96391,2.26686,-2.05886,-10.05116
8.97394,2.38522,-1.69794,-9.12565
8.98398,2.64455,-1.30319,-8.49163
8.99401,2.92542,-1.01529,-7.73791
9.00405,3.00158,-0.91863,-7.52109
9.01409,2.68599,-1.20683,-8.22004
9.02412,2.26043,-1.67699,-8.99023
9.03416,1.693,-1.9833,-9.07672
9.0442,1.49278,-0.77512,-13.61119
9.05423,2.60025,0.19947,-10.18448
9.06427,3.54267,0.63805,-7.4105
9.07431,3.13865,0.05731,-7.661
9.08434,2.72744,-1.53364,-8.11185
9.09438,2.34467,-2.27165,-9.68859
9.10442,1.90578,-1.97088,-10.97517
9.11445,1.41856,-1.63778,-10.82044
9.12449,0.95588,-2.22107,-10.0935
9.13453,0.56713,-3.32734,-9.52802
9.14456,0.4335,-3.57813,-7.70125
9.1546,0.64554,-2.86736,-6.00167
9.16464,0.83094,-1.53349,-5.29762
9.17467,0.90142,-0.57506,-5.29986
9.18471,0.72335,-0.20022,-6.10506
9.19475,0.10699,-0.19019,-9.48104
9.20478,-0.56698,-0.43081,-15.10936
9.21482,-1.01529,-0.51071,-15.00252
9.22486,-2.13084,-0.37454,-15.71868
9.23489,-3.53953,-0.1022,-13.09389
9.24493,-4.42838,0.13632,-12.40855
9.25497,-5.01615,0.33624,-12.63121
9.265,-6.04371,0.42707,-13.17335
9.27504,-6.7711,0.3907,-14.12848
9.28508,-6.84966,0.5369,-14.51171
9.29511,-6.42708,0.83303,-14.42088
9.30515,-5.83916,1.15969,-14.1029
9.31518,-5.40955,1.4874,-13.98558
9.32522,-5.35149,1.19186,-13.71788
9.33526,-5.56203,0.67636,-14.13746
9.34529,-5.57894,0.28057,-14.86934
9.35533,-5.09935,0.17134,-15.93431
9.36537,-4.32483,0.11567,-17.22419
9.3754,-3.41862,0.1444,-18.36113
9.38544,-2.39959,0.30511,-19.37672
9.39548,-1.14218,0.50967,-19.79765
9.40551,-0.11881,0.50174,-19.62198
9.41555,0.73831,0.46088,-19.05725
9.42559,1.74193,0.4525,-18.51511
9.43562,2.71158,0.46313,-18.06425
9.44566,3.23337,0.02364,-17.92524
9.4557,3.93562,-0.2704,-18.0219
9.46573,4.19359,-0.7431,-18.17169
9.47577,4.50933,-1.00347,-18.36532
9.48581,4.67094,-1.45672,-18.56524
9.49584,4.50649,-2.25923,-19.37164
9.50588,4.84946,-2.02071,-19.25073
9.51592,6.07409,-1.7551,-18.37475
9.52595,7.2896,-2.00006,-17.25905
9.53599,7.81198,-2.19025,-16.38651
9.54603,8.02701,-2.08984,-14.63561
9.55606,8.16932,-2.25833,-13.43102
9.5661,7.9676,-2.88606,-12.2616
9.57614,7.42831,-3.55704,-11.70405
9.58617,7.1434,-3.45992,-10.81446
9.59621,7.30157,-3.38974,-12.3469
9.60625,7.36726,-2.9323,-13.46993
9.61628,7.53141,-2.47516,-14.05052
9.62632,8.09839,-1.82932,-13.46828
9.63636,8.87695,-0.93404,-11.6451
9.64639,9.36477,-0.36362,-9.2506
9.65643,9.58983,-0.15487,-7.54458
9.66647,9.71492,0.28775,-5.36885
9.6765,9.9099,0.58478,-4.25719
9.68654,10.24479,1.04716,-3.73451
9.69658,10.33128,1.71859,-2.80735
9.70661,10.52132,1.8392,-2.07727
9.71665,10.44934,1.80598,-1.8184
9.72668,10.21696,2.03432,-1.56476
9.73672,9.1882,2.47441,0.0826
9.74739,8.43552,2.42877,0.58838
9.75742,8.43552,2.42877,0.58837
9.76746,7.50118,2.46678,1.40809
9.7775,6.06406,2.1259,1.82722
9.78753,5.05281,1.56207,0.81044
9.79757,4.17953,1.66128,0.43604
9.8076,3.17785,1.28987,-0.2698
9.81764,2.9709,1.12887,-1.38879
9.82768,2.83084,1.88753,-1.50505
9.83771,2.58738,2.24696,-1.18333
9.84775,2.13997,2.20596,-0.87643
9.85779,1.2987,1.99437,-1.01888
9.86782,0.1664,1.54636,-1.22927
9.87786,-0.83363,1.08517,-1.82528
9.8879,-1.2788,0.73083,-2.51825
9.89793,-1.42201,0.60633,-2.61207
9.90797,-1.47932,0.59466,-2.05273
9.91801,-1.78323,0.56114,-1.44744
9.92804,-2.56165,0.22266,-2.13727
9.93808,-3.74303,-0.25872,-2.07652
9.94812,-4.55766,-0.88152,-2.57317
9.95815,-4.55003,-1.1573,-2.78625
9.96819,-4.23534,-1.1166,-2.21404
9.97823,-4.00056,-1.02232,-2.15733
9.98826,-4.17923,-1.02262,-2.69482
9.9983,-4.4601,-1.21386,-2.5609
10.00834,-5.11117,-1.49293,-2.48578
10.01837,-6.01633,-1.76094,-3.00308
10.02841,-6.98209,-1.97417,-3.34216
10.03845,-7.56643,-1.9405,-3.21167
10.04848,-7.42382,-1.7952,-3.16409
10.05852,-6.79774,-1.57688,-3.859
10.06856,-6.35406,-1.43143,-4.92143
10.07859,-6.13918,-1.11884,-5.39952
10.08863,-6.15908,-0.7241,-5.34924
10.09867,-6.56445,-0.59451,-5.21173
10.1087,-7.01531,-0.40926,-4.93475
10.11874,-7.25638,0.01706,-5.29717
10.12878,-7.6815,0.32965,-6.46779
10.13881,-8.19805,0.46283,-8.07863
10.14885,-8.49373,0.37275,-9.24401
10.15889,-8.93681,-0.02155,-9.8074
10.16892,-9.46084,-0.12016,-10.01719
10.17896,-9.79647,0.45849,-10.02392
10.18899,-9.60973,0.95948,-10.43767
10.19903,-9.33754,0.88945,-11.61786
10.20907,-9.45919,0.56623,-12.97657
10.2191,-10.03365,0.13408,-14.00892
10.22914,-10.80458,-0.35,-14.71551
10.23918,-11.22596,-0.16101,-15.25436
10.24922,-10.80234,0.454,-15.61558
10.25925,-9.64893,1.1163,-15.66706
10.26929,-8.19341,1.70153,-15.37601
10.27932,-7.26131,2.13069,-15.46175
10.28936,-6.55787,2.25639,-16.25588
10.2994,-6.12691,2.48054,-17.20384
10.30943,-5.75566,3.16588,-18.03821
10.31947,-5.14783,3.48117,-18.7879
10.32951,-4.2524,3.06308,-19.09017
10.33954,-3.49957,2.18635,-19.05081
10.34958,-2.76111,1.67235,-18.71338
10.35962,-1.6942,1.68941,-18.47994
10.36965,-0.3111,2.12276,-18.21778
10.37969,1.50595,2.76874,-17.63704
10.38973,3.59115,3.51559,-16.90022
10.39976,5.77302,4.02495,-16.55127
10.4098,7.89712,4.24163,-16.45924
10.42046,11.28597,4.30328,-15.52804
10.4305,12.11331,3.93786,-14.78225
10.44054,12.32296,3.83746,-13.68975
10.45057,12.24365,3.71326,-12.97672
10.46061,11.91355,3.29996,-12.36859
10.47065,11.38159,2.77338,-11.87389
10.48068,10.77241,2.30651,-11.43545
10.49072,9.95225,1.83336,-11.04071
10.50076,9.03437,1.58062,-10.6512
10.51079,8.12248,1.4256,-10.3832
10.52083,7.22241,1.26429,-10.43064
10.53087,6.53452,1.25636,-10.40789
10.5409,5.98625,1.31531,-10.31377
10.55094,5.45953,1.18348,-10.03365
10.56098,4.94717,0.85608,-9.62783
10.57101,4.28787,0.64748,-9.32497
10.58105,3.50197,0.52433,-9.18775
10.59109,2.6212,0.43769,-9.14884
10.60112,1.82408,0.24346,-9.20825
10.61116,1.30918,0.02858,-9.30102
10.6212,1.09894,-0.15502,-9.52997
10.63123,0.9918,-0.15802,-9.54359
10.64127,0.96007,-0.01676,-9.30671
10.65131,1.05031,0.14126,-8.97481
10.66134,1.20817,0.26022,-8.79929
10.67138,1.302,0.33983,-8.87366
10.68142,1.38564,0.37335,-9.02001
10.69145,1.35841,0.34716,-9.08689
10.70149,1.20847,0.25199,-8.90119
10.71153,1.04537,0.10235,-8.52246
10.72156,0.93464,-0.04953,-8.1346
10.7316,0.85458,-0.16535,-8.10976
10.74164,0.80715,-0.21742,-8.4023
10.75167,0.91668,-0.21084,-8.68108
10.76171,1.16822,-0.04444,-8.69963
10.77175,1.36305,0.17448,-8.72193
10.78178,1.34928,0.25438,-8.80827
10.79182,1.25262,0.22057,-8.96838
10.80185,1.20997,0.24181,-9.228
10.81189,1.11001,0.3717,-9.4743
10.82193,0.92715,0.2903,-9.50782
10.83196,0.6831,0.09427,-9.433
10.842,0.45595,0.03576,-9.46308
10.85204,0.37783,0.063,-9.62664
10.86207,0.51041,0.13288,-9.84466
10.87211,0.80954,0.27339,-10.0347
10.88215,1.1163,0.37245,-9.98951
10.89218,1.3225,0.40342,-9.82565
10.90222,1.36185,0.37379,-9.73662
10.91226,1.33028,0.31409,-9.67063
10.92229,1.27686,0.23463,-9.66719
10.93233,1.1751,0.12899,-9.70385
10.94237,1.09056,0.05088,-9.82895
10.9524,1.09026,0.00823,-9.88611
10.96244,1.15266,0.00374,-9.85184
10.97248,1.24708,0.05821,-9.70924
10.98251,1.28479,0.19977,-9.641
10.99255,1.28958,0.22895,-9.78645
11.00259,1.32175,0.1854,-9.88835
11.01262,1.28434,0.17986,-9.90346
11.02266,1.19067,0.18735,-10.02991
11.0327,1.16792,0.20291,-10.19361
11.04273,1.261,0.21682,-10.15366
11.05277,1.31367,0.24032,-10.00881
11.06281,1.36395,0.227,-9.81009
11.07284,1.40435,0.2692,-9.63576
11.08288,1.41108,0.26351,-9.67422
11.09292,1.38804,0.20575,-9.69173
11.10295,1.36844,0.16221,-9.65163
11.11299,1.32744,0.14859,-9.5569
11.12303,1.27731,0.10924,-9.47341
11.13306,1.23212,0.07602,-9.53596
11.1431,1.24858,0.07826,-9.62454
11.15314,1.34943,0.08275,-9.58519
11.16317,1.36769,0.1242,-9.51231
11.17321,1.30499,0.1444,-9.52219
11.18325,1.20354,0.08739,-9.537
11.19328,1.12632,0.01018,-9.54314
11.20332,1.10597,0.02933,-9.48119
11.21336,1.15116,0.09143,-9.47984
11.22339,1.12438,0.08604,-9.51201
11.23343,1.02786,0.03472,-9.55421
11.24347,0.97519,-0.00449,-9.5575
11.2535,0.96681,-0.00569,-9.56738
11.26354,1.06303,0.04684,-9.64025
11.27358,1.13695,0.09532,-9.71791
11.28361,1.22254,0.13048,-9.79333
11.29365,1.25471,0.16056,-9.85079
11.30369,1.24349,0.17642,-9.87952
11.31372,1.26653,0.18046,-9.78121
11.32376,1.35646,0.20381,-9.67228
11.3338,1.47992,0.24166,-9.54867
11.34383,1.57524,0.29075,-9.48672
11.35387,1.57149,0.28955,-9.46069
11.36391,1.49638,0.29,-9.55885
11.37394,1.44655,0.2885,-9.58758
11.38398,1.47617,0.35389,-9.4975
11.39401,1.41707,0.48946,-9.44453
11.40405,1.25082,0.55755,-9.50543
11.41409,1.05285,0.68055,-9.578
11.42412,0.72425,0.99015,-9.53521
11.43416,0.22625,1.27042,-9.47685
11.4442,-0.5351,1.53513,-9.39455
11.45423,-1.69061,1.80313,-9.46428
11.46427,-3.48356,2.03103,-10.16967
11.47431,-6.16477,1.87675,-11.81568
11.48434,-9.05472,1.03654,-13.44539
11.49438,-11.17299,0.1227,-13.8756
11.50442,-11.90442,-0.1658,-13.19519
11.51445,-11.52539,0.23927,-11.91983
11.52449,-10.31721,0.79473,-10.64043
11.53453,-8.79076,1.11031,-9.66285
11.54456,-7.81093,1.50745,-9.43585
11.5546,-7.35963,1.87331,-10.48915
11.56464,-7.27269,1.79445,-12.52542
11.57467,-7.19293,1.58257,-14.53221
11.58471,-6.61817,1.43787,-15.84991
11.59475,-5.69356,1.24903,-16.71676
11.60478,-4.74276,1.18483,-17.57269
11.61482,-3.84269,0.90965,-18.65667
11.62486,-2.98557,0.20336,-19.64383
11.63489,-1.90474,-0.14231,-20.40683
11.64493,-0.68953,-0.11851,-20.89165
11.65497,0.41764,0.11597,-21.29059
11.665,1.09759,0.35449,-21.54228
11.67504,1.31681,0.23613,-21.72544
11.68508,1.57134,0.08709,-21.90276
11.69511,1.87571,0.33728,-21.93119
11.70515,2.42817,0.78605,-21.59914
11.71519,3.32495,1.04013,-21.56068
11.72522,3.98829,1.08203,-21.92655
11.73526,4.56978,1.07739,-22.14472
11.7453,5.12434,1.18767,-21.62563
11.75533,5.86953,1.50954,-20.28667
11.76537,6.87645,1.57404,-18.69048
11.77541,7.61296,1.50296,-17.02696
11.78544,8.22827,1.66607,-15.68292
11.79548,8.90404,1.93721,-14.742
11.80552,9.67227,2.32657,-14.00443
11.81555,10.78902,2.65307,-13.37566
11.82559,12.0774,2.90836,-12.68987
11.83563,13.46484,3.21586,-11.68056
11.84566,14.34336,3.74857,-10.7338
11.8557,14.53221,3.91123,-9.56214
11.86574,14.18086,3.52935,-8.12547
11.87577,13.67194,2.89594,-6.70406
11.88581,12.95697,2.04674,-4.93939
11.89585,12.08234,1.2616,-3.30624
11.90588,11.3762,0.59481,-2.29095
11.91592,10.49124,0.18435,-1.52765
11.92596,9.57157,-0.37005,-1.49772
11.93599,8.74901,-0.7425,-2.0629
11.94603,7.61521,-0.8251,-2.98602
11.95607,6.66785,-0.69492,-4.22681
11.9661,6.15908,-0.39639,-4.70221
11.97614,5.54677,-0.02768,-4.35834
11.98618,4.56859,0.44831,-3.76802
11.99621,3.60238,0.44742,-3.37612
12.00625,2.3761,-0.10549,-3.37537
12.01629,1.23032,-0.02349,-2.8922
12.02632,0.50996,0.5785,-1.81346
12.03636,-0.26142,1.03579,-0.76076
12.0464,-1.02906,1.08622,-0.56683
12.05643,-1.66981,0.94616,-0.73532
12.06647,-2.25294,1.01394,-0.9095
12.07651,-2.92571,0.84246,-1.24528
12.08654,-3.81217,0.22924,-1.91357
12.09658,-4.67827,-0.5788,-2.36562
12.10662,-5.25423,-1.20174,-1.84009
12.11665,-5.55365,-1.50012,-0.58852
12.12669,-5.71945,-1.51284,0.53765
12.13673,-5.8628,-1.59948,0.55216
12.14676,-5.85906,-2.00125,0.0223
12.1568,-5.46821,-2.14984,-0.31514
12.16684,-4.84422,-1.72487,-0.48587
12.17687,-4.48479,-1.36095,-0.44697
12.18691,-4.60914,-1.53633,-0.2671
12.19695,-4.98039,-1.85625,0.30706
12.20698,-5.30106,-1.99497,0.72604
12.21702,-5.82973,-2.28871,0.55127
12.22706,-6.51672,-2.51795,0.35494
12.23709,-6.52151,-2.3743,0.11896
12.24713,-6.15564,-2.10854,-0.61591
12.25716,-5.42212,-1.84623,-1.22314
12.2672,-4.74112,-1.07754,-1.78892
12.27724,-4.46025,-0.23104,-2.73208
12.28727,-5.30331,0.17148,-3.84853
12.29731,-7.15806,-0.09607,-4.87878
12.30735,-8.44375,-0.57955,-5.56667
12.31738,-8.75485,-0.46777,-5.93822
12.32742,-8.53234,-0.20156,-5.69102
12.33746,-8.1361,-0.28386,-5.28445
12.34749,-8.24967,-0.30631,-5.59061
12.35753,-8.55029,-0.48348,-6.82198
12.36757,-8.24428,-0.42288,-8.23261
12.3776,-7.79821,-0.01407,-9.37225
12.38764,-7.72115,0.03516,-10.09171
12.39768,-8.36175,-0.26261,-10.34564
12.40771,-9.07672,-0.78949,-10.34086
12.41775,-9.49451,-1.05854,-10.16548
12.42779,-9.69322,-0.76944,-10.218
12.43782,-9.54897,-0.86745,-10.59838
12.44786,-9.60344,-1.18139,-11.10491
12.4579,-10.02976,-0.96067,-11.58315
12.46793,-9.36193,-0.56099,-11.70031
12.47797,-8.20283,-0.16116,-11.91055
12.48801,-7.51345,0.9089,-12.94979
12.49804,-6.68117,1.48411,-14.28545
12.50808,-6.53842,1.70243,-15.19076
12.51812,-6.74087,1.80059,-15.42973
12.52815,-6.91715,1.6719,-15.16383
12.53819,-7.14894,1.92868,-14.89493
12.54823,-6.90293,2.11348,-14.96256
12.55826,-6.16642,2.00948,-15.48076
12.5683,-5.30076,2.1886,-16.31589
12.57834,-4.16082,1.88289,-16.74894
12.58837,-3.63081,1.46151,-16.91503
12.59841,-3.52591,1.42216,-17.34794
12.60845,-3.30894,1.53648,-17.90923
12.61848,-2.43176,2.36936,-18.70754
12.62852,-0.57356,3.40785,-19.19746
12.63856,1.93541,4.26422,-19.36789
12.64859,4.54165,5.19093,-19.52097
12.65863,7.04299,5.56203,-19.20015
12.66867,8.75021,5.2867,-18.34318
12.6787,9.57741,5.0154,-17.4654
12.68874,10.16832,4.86801,-16.58568
12.69878,10.67784,4.7489,-15.71389
12.70881,11.03742,4.66839,-15.08452
12.71885,11.30632,4.65717,-14.52427
12.72889,11.38772,4.39441,-13.78611
12.73892,11.04086,3.75082,-12.92585
12.74896,10.42914,3.24908,-12.18933
12.759,9.87803,3.04408,-11.53766
12.76903,9.41086,2.81902,-10.98639
12.77907,8.71953,2.49476,-10.65899
12.78911,7.88171,2.28242,-10.37901
12.79914,6.99915,2.04061,-9.76954
12.80918,6.1926,1.56282,-8.96928
12.81922,5.5761,1.08068,-8.30519
12.82925,5.18943,0.92311,-7.80839
12.83929,4.80232,0.96651,-7.53336
12.84933,4.22532,0.9487,-7.48757
12.85936,3.44541,0.71048,-7.44672
12.8694,2.51242,0.28671,-7.37279
12.87944,1.71724,-0.15113,-7.17467
12.88947,1.29706,-0.39729,-6.80866
12.89951,1.01574,-0.27518,-6.82572
12.90955,0.8239,-0.07826,-7.34571
12.91958,0.75672,0.16325,-7.96671
12.92962,0.77093,0.35105,-8.50435
12.93966,0.49291,0.29538,-8.63199
12.94969,0.05073,0.13512,-8.51258
12.95973,-0.3084,0.01496,-8.42804
12.96977,-0.39295,0.04175,-8.63529
12.9798,-0.23329,0.24107,-9.08196
12.98984,-0.03681,0.42288,-9.56798
12.99988,0.14111,0.46238,-9.93908
13.00991,0.04459,0.43305,-10.12194
13.01995,-0.29898,0.28895,-10.10802
13.02999,-0.52388,0.07183,-10.06014
13.04002,-0.55201,-0.0633,-9.9292
13.05006,-0.41884,-0.0015,-9.85902
13.0601,-0.25139,0.09472,-9.86276
13.07013,-0.13572,0.02768,-9.98577
13.08017,0.10998,-0.07362,-10.20753
13.09021,0.2668,-0.01586,-10.27561
13.10024,0.16924,-0.07811,-10.20349
13.11028,0.09068,-0.24765,-10.14498
13.12032,0.02619,-0.391,-10.09575
13.13035,-0.15413,-0.56533,-9.98831
13.14039,-0.2674,-0.70779,-10.00926
13.15043,-0.20411,-0.66903,-10.09829
13.16046,-0.03337,-0.46657,-10.04487
13.1705,0.07123,-0.38023,-9.71537
13.18054,0.00224,-0.3729,-9.50468
13.19057,0.04938,-0.36571,-9.53401
13.20061,0.10475,-0.27997,-9.55286
13.21065,0.09218,-0.26456,-9.48209
13.22068,0.14425,-0.31948,-9.44617
13.23072,0.19019,-0.30152,-9.30028
13.24076,0.15353,-0.38277,-9.09423
13.25079,0.12719,-0.49964,-8.81889
13.26083,0.15443,-0.50742,-8.59848
13.27087,0.36123,-0.46343,-8.53653
13.2809,0.76121,-0.45639,-8.44959
13.29094,1.03953,-0.44218,-8.2588
13.30098,1.17705,-0.40103,-8.37252
13.31101,1.27671,-0.33264,-8.82099
13.32105,1.41497,-0.22745,-9.1888
13.33109,1.44221,-0.14231,-9.46473
13.34112,1.30604,-0.25274,-9.67497
13.35116,1.34838,-0.29568,-9.82072
13.3612,1.51673,-0.04474,-9.86381
13.37123,1.62701,0.18316,-9.88835
13.38127,1.65634,0.22101,-9.91589
13.39131,1.4464,0.082,-9.97858
13.40134,1.157,0.00614,-9.87249
13.41138,1.17151,-0.00958,-9.84376
13.42142,1.198,-0.02559,-9.88102
13.43145,1.23137,0.04474,-10.05999
13.44149,1.31023,0.2077,-10.3003
13.45153,1.27386,0.38262,-10.52446
13.46156,1.12902,0.56503,-10.79635
13.4716,0.91608,0.79921,-10.82224
13.48164,0.71467,0.93269,-10.95048
13.49167,0.51116,0.99225,-11.28253
13.50171,0.2083,0.86311,-11.37021
13.51175,-0.22266,0.74041,-10.78199
13.52178,-0.61651,0.95903,-10.06822
13.53182,-1.03863,1.33297,-9.68455
13.54186,-1.77635,1.3424,-9.78974
13.55189,-2.69961,1.00661,-10.41957
13.56193,-3.51843,0.66409,-11.16117
13.57197,-4.05518,0.38801,-11.87105
13.582,-4.26512,0.37215,-12.15611
13.59204,-4.30612,0.65586,-12.25472
13.60208,-4.5641,0.83109,-12.55714
13.61211,-5.142,0.51894,-13.13309
13.62215,-5.9234,-0.05148,-14.16455
13.63219,-6.57119,-0.76555,-14.91423
13.64222,-6.70287,-1.28419,-15.11669
13.65226,-6.42828,-1.32803,-15.18762
13.6623,-6.03025,-1.15909,-15.33142
13.67233,-5.60542,-1.12498,-15.64895
13.68237,-5.16444,-1.15879,-16.10953
13.69241,-4.73334,-1.10118,-16.51071
13.70244,-4.14601,-0.79323,-16.86984
13.71248,-3.43897,-0.413,-17.27596
13.72252,-2.8081,-0.1242,-17.61489
13.73255,-2.30008,-0.00254,-17.82184
13.74322,-1.90399,0.06554,-17.92269
13.75325,-1.5266,0.09263,-17.82453
13.76329,-1.10597,-0.05073,-17.35213
13.77333,-0.73128,-0.25723,-16.79128
13.78336,-0.51969,-0.52852,-16.49111
13.7934,-0.33294,-0.88271,-16.28326
13.80344,-0.03292,-0.91728,-15.97576
13.81347,0.33294,-0.8655,-15.47402
13.82351,0.43934,-0.96621,-14.75472
13.83355,0.39205,-1.14323,-13.8512
13.84358,0.22401,-1.35362,-13.14028
13.85362,0.06719,-1.56267,-12.81467
13.86366,0.14186,-1.80448,-12.45299
13.87369,0.64838,-1.98375,-12.12364
13.88373,1.46226,-2.10256,-12.07216
13.89377,2.3945,-2.03851,-12.27627
13.9038,3.3031,-2.0837,-12.78549
13.91384,3.84703,-2.19533,-13.1934
13.92388,4.19958,-2.01936,-13.18232
13.93391,4.90602,-2.04076,-13.18996
13.94395,5.78664,-2.48398,-13.56914
13.95399,6.55503,-2.61836,-13.73928
13.96402,7.04718,-2.37101,-12.9839
13.97406,7.18515,-2.06709,-11.83589
13.9841,6.9984,-1.37307,-10.60556
13.99413,6.95127,-0.44787,-9.19388
14.00417,7.14415,0.55456,-7.44387
14.01421,7.46826,1.60875,-5.76554
14.02424,8.30189,2.44358,-4.03213
14.03428,9.21528,3.18952,-2.55491
14.04432,10.02677,3.77386,-2.03672
14.05435,10.50621,4.00595,-2.24875
14.06439,10.53149,4.14915,-2.30741
14.07443,9.88311,3.91602,-2.12291
14.08446,8.57154,3.47967,-1.86329
14.0945,7.1018,3.14299,-1.30349
14.10454,5.49065,2.8711,-0.53061
14.11457,3.99862,2.68974,0.0021
14.12461,3.16124,2.46274,0.35539
14.13465,3.02612,2.44493,0.76585
14.14468,3.23516,2.52678,0.74549
14.15472,3.43852,2.40303,0.33639
14.16476,3.39543,2.26462,-0.14515
14.17479,2.92527,2.45241,-0.38382
14.18483,1.8784,2.55626,-0.32337
14.19487,0.49036,1.88888,0.00673
14.2049,-0.9707,0.90366,0.24047
14.21494,-1.81181,0.35494,0.22356
14.22498,-2.00874,0.26815,-0.05761
14.23501,-2.29784,0.37888,-0.69192
14.24505,-2.54549,0.57461,-1.34075
14.25509,-3.014,0.47435,-2.21568
14.26512,-3.73301,0.02125,-2.67253
14.27516,-4.27889,-0.33429,-2.44029
14.2852,-4.59103,-0.2258,-2.17094
14.29523,-4.73678,0.04983,-2.32537
14.30527,-4.90781,0.13318,-2.64739
14.31531,-5.39518,0.08888,-3.48461
14.32534,-5.97668,0.31978,-4.53956
14.33538,-6.46464,0.71617,-5.43873
14.34542,-6.82991,1.21281,-5.6994
14.35545,-7.11213,1.99961,-5.17342
14.36549,-7.74883,2.5389,-5.52582
14.37553,-8.70816,2.60609,-7.17213
14.38556,-9.70549,2.60085,-8.7933
14.3956,-10.55244,2.2317,-9.75098
14.40564,-11.41032,1.68163,-10.2795
14.41567,-12.95218,0.67861,-10.80144
14.42634,-12.95218,0.67861,-10.80144
14.43637,-13.05798,0.022,-10.69909
14.44641,-12.65934,-0.15398,-10.71031
14.45645,-12.28749,-0.39609,-11.20112
14.46648,-12.38281,-0.54184,-12.16299
14.47652,-12.86599,-0.71976,-12.86255
14.48656,-13.89415,-0.85293,-13.25684
14.49659,-14.29817,-1.06811,-13.03987
14.50663,-13.78447,-0.81328,-12.60831
14.51667,-12.83936,-0.72619,-12.78878
14.5267,-12.40226,-0.90336,-13.32418
14.53674,-12.25008,-0.80939,-14.20899
14.54678,-12.04209,-0.6174,-14.88864
14.55681,-11.75523,-0.00359,-15.37766
14.56685,-11.03817,0.74549,-15.9789
14.57689,-9.80096,1.31861,-16.36467
14.58692,-8.1542,1.89845,-16.43709
14.59696,-6.05957,2.54174,-16.42781
14.607,-3.64353,2.03896,-16.85189
14.61703,-1.81421,0.73173,-17.37263
14.62707,-0.35778,-0.42243,-17.88454
14.63711,0.85817,-0.61262,-18.77608
14.64714,2.42054,0.89408,-20.09588
14.65718,5.24884,3.18713,-21.3069
14.66722,8.73524,5.51489,-21.8616
14.67725,12.13112,7.73836,-22.36903
14.68729,14.91064,9.46054,-22.66067
14.69733,16.59885,9.91559,-22.57553
14.70736,16.722,9.11862,-22.04416
14.7174,15.2578,7.71606,-20.52414
14.72744,12.67206,6.07678,-18.01307
14.73747,10.37093,4.08675,-15.04845
14.74751,8.51243,2.3945,-11.84307
14.75755,7.27837,1.32908,-9.16036
14.76758,6.29795,0.6813,-7.50043
14.77762,5.54138,0.1465,-6.67848
14.78766,5.01271,-0.26246,-6.53153
14.79769,4.313,-0.47465,-6.63777
14.80773,3.23995,-0.68205,-6.62655
14.81777,1.76976,-1.217,-6.35092
14.8278,0.35973,-1.93107,-5.85936
14.83784,-0.62474,-2.31819,-5.66977
14.84788,-1.15685,-2.3761,-5.8212
14.85791,-1.39582,-2.23918,-5.82689
14.86795,-1.42694,-2.11632,-5.50113
14.87799,-1.23631,-1.94948,-5.42945
14.88802,-0.71841,-1.64347,-5.87447
14.89806,-0.03277,-1.17256,-6.50355
14.9081,0.44038,-0.92267,-6.98074
14.91813,0.66065,-0.78485,-7.26685
14.92817,0.61441,-0.63357,-7.45165
14.93821,0.50697,-0.49919,-7.50792
14.94824,0.60139,-0.29075,-7.84685
14.95828,0.55171,-0.01556,-8.57394
14.96832,0.52628,0.13722,-9.40652
14.97835,0.73173,0.34686,-10.12313
14.98839,0.88406,0.47854,-10.70702
14.99843,1.03325,0.57296,-10.88479
15.00846,1.25681,0.71587,-10.83212
15.0185,1.29915,0.74864,-10.56786
15.02854,1.0132,0.47196,-10.27891
15.03857,0.58763,0.07033,-10.23476
15.04861,0.30466,-0.23418,-10.43902
15.05865,0.27533,-0.34671,-10.73455
15.06868,0.43889,-0.30751,-11.02859
15.07872,0.6605,-0.24122,-10.98804
15.08876,0.81104,-0.22311,-10.73919
15.09879,0.9074,-0.23044,-10.39473
15.10883,0.91922,-0.25693,-10.25317
15.11887,0.9273,-0.38741,-10.38036
15.1289,0.9915,-0.48123,-10.45742
15.13894,1.06392,-0.42617,-10.2798
15.14898,1.13231,-0.29823,-9.95464
15.15901,1.12273,-0.26366,-9.68679
15.16905,0.98656,-0.35629,-9.80081
15.17909,0.9104,-0.40297,-10.20648
15.18912,1.00033,-0.27758,-10.48062
15.19916,1.13964,-0.16041,-10.51025
15.2092,1.18363,-0.09053,-10.27053
15.21923,1.18453,-0.0844,-9.98861
15.22927,0.99255,-0.17463,-9.75667
15.23931,0.79892,-0.29105,-9.60823
15.24934,0.75687,-0.32441,-9.62424
15.25938,0.72859,-0.28656,-9.75727
15.26942,0.6596,-0.26635,-9.80635
15.27945,0.56817,-0.33594,-9.75487
15.28949,0.38397,-0.42183,-9.6199
15.29953,0.27728,-0.4525,-9.38707
15.30956,0.23538,-0.49306,-9.06983
15.3196,0.13647,-0.48812,-8.59548
15.32964,-0.08814,-0.47375,-8.14971
15.33967,-0.29763,-0.46343,-7.93543
15.34971,-0.58179,-0.48827,-7.83188
15.35975,-0.84066,-0.49141,-7.86884
15.36978,-0.94915,-0.40028,-7.95144
15.37982,-1.22314,-0.33309,-7.9676
15.38986,-1.73744,-0.30885,-8.04078
15.39989,-2.38822,-0.3292,-8.17575
15.40993,-2.99515,-0.28386,-8.31237
15.41997,-3.56766,-0.16251,-8.54715
15.43,-4.18881,0.01826,-8.66731
15.44004,-4.88791,0.02544,-8.66028
15.45008,-5.94824,-0.33384,-8.85181
15.46011,-7.32596,-0.94167,-9.19463
15.47015,-8.55119,-1.4853,-9.77927
15.48019,-9.52279,-1.73176,-10.55499
15.49022,-10.10578,-1.61205,-11.19095
15.50026,-10.30539,-1.08353,-11.50204
15.5103,-10.13017,-0.47091,-11.48199
15.52033,-9.47341,0.18735,-11.56579
15.53037,-8.76098,0.77063,-12.00917
15.54041,-8.21361,1.10837,-13.25505
15.55044,-7.50911,1.39971,-15.19315
15.56048,-6.54889,1.91581,-17.00138
15.57052,-5.23028,2.75662,-18.28512
15.58055,-3.79077,3.65819,-19.21018
15.59059,-2.34961,4.2319,-20.11638
15.60063,-1.20354,4.21933,-21.12254
15.61066,-0.36751,3.88474,-21.81552
15.6207,0.42258,3.43703,-22.16657
15.63074,1.19291,3.08987,-22.43053
15.64077,1.87511,3.00697,-22.68147
15.65081,2.57122,3.09645,-22.6695
15.66085,3.36355,3.24115,-22.47796
15.67088,4.01253,3.37792,-22.37037
15.68092,4.42538,3.42356,-22.20472
15.69096,4.67139,3.32824,-21.80504
15.70099,4.89569,3.07131,-20.99356
15.71103,5.24959,2.69617,-19.74902
15.72107,5.44621,2.36442,-18.43071
15.7311,5.58837,2.20715,-17.48889
15.74114,5.96396,2.08041,-16.58957
15.75118,6.58166,2.00978,-15.32424
15.76121,7.14834,1.85431,-14.03047
15.77125,7.72399,1.64093,-12.64707
15.78129,8.4834,1.4639,-11.03832
15.79132,9.20271,1.39477,-9.49241
15.80136,9.61392,1.29885,-8.18787
15.8114,9.74784,0.95469,-7.21358
15.82143,9.94402,0.75672,-6.98718
15.83147,9.98891,0.75582,-6.78427
15.84151,9.9316,0.71317,-6.00092
15.85154,10.04338,0.73697,-4.87744
15.86158,10.29252,1.03474,-3.53908
15.87162,10.50785,1.49039,-2.13189
15.88165,10.55753,1.71365,-0.886
15.89169,10.29492,1.71455,0.00793
15.90173,10.16384,1.58751,0.10549
15.91176,10.16548,1.4666,-0.48991
15.9218,10.02213,1.46435,-1.06497
15.93184,9.5982,1.68881,-1.06707
15.94187,8.87261,1.80343,-0.77198
15.95191,7.95309,1.57164,-0.51625
15.96195,7.11213,1.20713,-0.26905
15.97198,6.27655,0.9719,-0.21937
15.98202,5.59076,0.84859,-0.19109
15.99206,5.05536,0.72918,-0.18016
16.00209,4.60989,0.65736,-0.26261
16.01213,4.13284,0.66993,-0.45819
16.02217,3.4674,0.72065,-0.91234
16.0322,2.64305,0.74624,-1.59514
16.04224,1.85057,0.64688,-2.31759
16.05228,1.04686,0.42063,-2.50703
16.06231,0.56743,0.31364,-2.14939
16.07235,0.287,0.45969,-2.0234
16.08239,-0.08649,0.74534,-2.16107
16.09243,-0.33743,0.89827,-2.20102
16.10246,-1.00841,0.9493,-2.68076
16.1125,-1.97073,0.45146,-3.364
16.12253,-2.44373,0.01691,-3.73974
16.13257,-2.44657,0.24062,-3.3866
16.14261,-2.36996,0.60124,-2.67073
16.15265,-2.68525,0.86805,-2.01263
16.16268,-3.27886,0.99225,-1.93496
16.17272,-4.09109,0.96471,-2.42967
16.18276,-4.90123,0.76704,-2.87259
16.19279,-5.44067,0.3735,-2.81723
16.20283,-5.67381,0.2888,-1.99063
16.21287,-5.96934,0.60229,-1.33731
16.2229,-6.63703,0.85772,-1.56955
16.23294,-7.46542,0.66289,-2.9507
16.24298,-8.13056,0.33055,-5.18045
16.25301,-8.67449,0.10983,-7.34496
16.26305,-9.32826,-0.38502,-8.36639
16.27309,-10.06672,-0.89977,-7.86091
16.28312,-10.80039,-1.12393,-6.75913
16.29316,-11.95993,-1.45672,-6.60979
16.3032,-13.11589,-1.79191,-7.72354
16.31323,-13.53322,-1.77425,-9.2075
16.32327,-13.35905,-1.44445,-10.64851
16.33331,-13.0484,-1.19396,-11.62684
16.34334,-12.9444,-0.92865,-12.19337
16.35338,-12.9881,-0.55665,-12.53185
16.36342,-12.97104,-0.29,-12.71875
16.37345,-12.92974,-0.31753,-13.38658
16.38349,-12.9251,-0.18585,-14.60628
16.39353,-12.71246,0.16505,-15.39816
16.40356,-12.16718,0.38756,-15.45203
16.4136,-11.51566,0.61366,-14.89463
16.42364,-10.798,1.04058,-14.44272
16.43367,-10.01091,1.61175,-14.31044
16.44371,-8.90119,2.27659,-14.4517
16.45375,-7.4732,2.64065,-14.8011
16.46378,-6.02112,2.06141,-14.94027
16.47382,-5.16265,1.08457,-14.98621
16.48386,-4.56529,0.35988,-15.00745
16.49389,-3.53848,-0.0419,-15.06611
16.50393,-2.01547,0.48782,-15.5867
16.51397,-0.01511,2.04076,-16.8064
16.524,2.46229,3.41353,-18.31609
16.53404,4.83285,4.87145,-20.07329
16.54408,6.8124,6.62969,-22.4223
16.55411,8.8554,8.03674,-24.46784
16.56415,10.68682,8.80183,-25.44273
16.57419,12.16269,8.95716,-24.94848
16.58422,12.78833,8.46126,-22.8112
16.59426,12.4283,7.39599,-19.9003
16.6043,11.44054,6.18362,-16.97534
16.61433,9.61287,4.65014,-14.10379
16.62437,7.67027,2.88726,-10.98654
16.63441,6.00152,1.53947,-8.29875
16.64444,4.73558,0.67636,-6.84053
16.65448,3.93831,0.23568,-6.97655
16.66452,3.2817,0.32756,-7.69317
16.67455,2.9127,0.44368,-8.28439
16.68459,2.63826,0.09098,-8.45602
16.69463,2.29439,-0.34447,-7.87318
16.70466,1.93317,-0.57775,-6.9972
16.7147,1.71021,-0.53211,-6.42708
16.72474,1.70362,-0.3506,-6.28268
16.73477,1.68372,-0.23792,-6.25515
16.74481,1.60142,-0.28775,-6.34359
16.75485,1.41856,-0.40731,-6.47841
16.76488,1.16822,-0.50682,-6.62655
16.77492,1.05375,-0.43081,-6.76512
16.78496,1.10956,-0.0187,-6.89665
16.79499,1.18887,0.39564,-7.42262
16.80503,0.89827,0.66963,-8.1132
16.81507,0.34626,0.74714,-8.67883
16.8251,-0.10834,0.73562,-9.00953
16.83514,-0.32995,0.72051,-9.20466
16.84518,-0.37754,0.67786,-9.48403
16.85521,-0.34162,0.78081,-9.83733
16.86525,-0.35554,0.88077,-10.26349
16.87529,-0.53301,0.80984,-10.63579
16.88532,-0.76974,0.57985,-10.76583
16.89536,-0.94751,0.43844,-10.49528
16.9054,-0.84381,0.40327,-10.10069
16.91543,-0.62982,0.4139,-9.88775
16.92547,-0.56802,0.40627,-10.06747
16.93551,-0.62384,0.28416,-10.32754
16.94555,-0.66379,0.23433,-10.42959
16.95558,-0.62444,0.25812,-10.39667
16.96562,-0.53675,0.25004,-10.34071
16.97566,-0.36437,0.26097,-10.39682
16.98569,-0.17223,0.40746,-10.34894
16.99573,-0.03412,0.5369,-10.18628
17.00577,-0.05926,0.51266,-9.96781
17.0158,-0.17343,0.39025,-9.79273
17.02584,-0.30526,0.35404,-9.69337
17.03588,-0.39863,0.41734,-9.7257
17.04591,-0.41973,0.45206,-9.71058
17.05595,-0.49515,0.45625,-9.62693
17.06599,-0.56458,0.49769,-9.40128
17.07602,-0.70075,0.53421,-9.11802
17.08606,-1.06048,0.44787,-8.89147
17.09609,-1.51837,0.27459,-8.84822
17.10613,-1.85281,0.2487,-8.92992
17.11617,-2.2308,0.40821,-9.08076
17.12621,-2.59382,0.57042,-9.13493
17.13624,-3.05545,0.79667,-9.22306
17.14628,-3.75815,0.7624,-9.17398
17.15632,-4.84123,0.30182,-9.14465
17.16635,-6.01678,-0.26621,-9.33424
17.17639,-6.88198,-0.60364,-9.39305
17.18643,-7.30815,-0.59331,-9.43211
17.19646,-7.50268,-0.36182,-9.55002
17.2065,-7.41125,-0.0196,-9.74949
17.21654,-7.02354,0.30451,-10.11775
17.22657,-6.58316,0.48348,-10.63085
17.23661,-6.10252,0.64359,-11.47242
17.24665,-5.48586,1.02188,-12.72354
17.25668,-4.7082,1.56611,-13.95415
17.26672,-3.54297,2.13024,-14.89223
17.27676,-1.88274,2.66056,-15.35641
17.28679,-0.19438,2.98781,-15.30284
17.29683,1.2405,3.29472,-15.30613
17.30687,2.3725,3.70458,-15.43991
17.3169,3.64368,4.18925,-15.62247
17.32694,4.96932,4.72316,-16.0398
17.33698,6.14277,5.22026,-16.60409
17.34701,6.93959,5.61171,-17.54142
17.35705,6.9384,5.44935,-18.73283
17.36709,6.58121,4.91425,-19.77371
17.37712,5.88375,4.18282,-20.09468
17.38716,4.71987,3.34515,-19.72702
17.3972,3.68303,2.59008,-19.27198
17.40723,2.89654,2.08894,-19.01251
17.41727,2.1042,1.78084,-18.5395
17.42731,1.64781,1.69554,-17.99721
17.43734,1.80179,1.86867,-17.5498
17.44738,2.21329,2.25668,-17.18184
17.45742,2.87199,2.77293,-16.71961
17.46745,3.54043,3.37403,-16.00299
17.47749,3.99353,3.70727,-15.22772
17.48753,4.18686,3.69395,-14.25612
17.49756,4.42763,3.35248,-13.25265
17.5076,4.67603,3.09855,-12.14174
17.51764,5.12359,3.04767,-11.01752
17.52767,6.01468,3.10962,-9.98382
17.53771,7.13756,3.241,-9.11173
17.54775,8.47443,3.4496,-8.22363
17.55778,9.91155,3.71221,-6.75748
17.56782,11.19439,3.66343,-4.61827
17.57786,12.07336,3.45438,-2.44613
17.58789,12.58737,3.04976,-1.11929
17.59793,12.82873,2.5603,-0.98013
17.60797,13.0285,2.17468,-1.31651
17.618,13.00081,1.90204,-1.48216
17.62804,12.91043,1.78637,-1.12602
17.63808,12.6758,1.69509,-0.10145
17.64811,12.41229,1.52421,0.8456
17.65815,12.22764,1.34449,1.46944
17.66819,11.99944,1.2185,1.70931
17.67823,11.4362,1.26399,1.70258
17.68826,10.55484,1.45328,1.50281
17.6983,9.65896,1.4847,0.91054
17.70834,8.70622,1.36814,0.34357
17.71837,7.48757,1.24469,-0.3907
17.72841,5.87597,1.06228,-1.3837
17.73907,5.87597,1.06228,-1.3837
17.74911,3.85033,0.75447,-2.08251
17.75915,2.36517,0.30167,-2.24112
17.76918,1.57748,0.03397,-1.82513
17.77922,1.18393,0.43739,-0.98716
17.78926,0.81283,1.23301,-0.51101
17.79929,0.33384,1.78323,-0.64494
17.80933,-0.3102,2.08879,-1.06976
17.81937,-1.07021,2.39286,-1.2999
17.8294,-1.97911,2.54025,-1.51972
17.83944,-3.10573,2.3324,-1.99512
17.84948,-4.38303,1.90683,-2.84835
17.85951,-5.43633,1.32429,-3.21227
17.86955,-5.83647,0.80041,-2.85583
17.87959,-5.91338,0.56129,-2.31908
17.88962,-6.04237,0.62743,-1.81391
17.89966,-6.33476,0.63895,-2.17738
17.9097,-6.37711,0.3298,-2.75632
17.91973,-6.08262,0.25827,-2.69018
17.92977,-5.8444,0.37933,-2.19249
17.93981,-5.94211,0.39325,-1.79356
17.94984,-6.42544,0.34881,-1.74043
17.95988,-7.24171,0.12824,-2.3969
17.96992,-8.18682,-0.47914,-3.54477
17.97995,-9.26436,-1.13021,-4.68575
17.98999,-9.97544,-1.49802,-5.32141
18.00003,-10.29058,-1.30813,-5.20589
18.01006,-10.1363,-0.84066,-4.67677
18.0201,-9.86276,-0.31963,-4.70745
18.03014,-10.0733,0.07138,-6.28014
18.04017,-10.78917,0.13542,-8.76143
18.05021,-11.78441,0.31693,-10.77825
18.06025,-12.79132,0.37993,-12.24574
18.07028,-13.75274,0.03696,-12.80045
18.08032,-14.3058,0.13991,-12.9465
18.09036,-13.94174,1.08532,-13.13175
18.10039,-12.57674,1.64242,-13.63318
18.11043,-10.72363,2.30232,-14.69726
18.12047,-9.03527,3.39258,-16.1245
18.1305,-7.71457,4.64325,-16.92326
18.14054,-6.65034,5.72798,-16.83483
18.15058,-5.89123,6.15235,-16.61022
18.16061,-5.30361,5.41778,-17.09954
18.17065,-4.8321,4.38049,-18.21224
18.18069,-4.29819,4.07508,-18.74106
18.19073,-3.48177,3.97288,-18.83668
18.20076,-2.61552,3.6323,-18.71907
18.2108,-1.97986,3.14763,-18.68151
18.22084,-1.44685,2.43401,-18.7276
18.23087,-0.61411,2.41036,-18.36158
18.24091,0.69357,3.16648,-18.29903
18.25095,2.10765,3.82728,-18.9133
18.26098,3.54776,4.29086,-19.54357
18.27102,5.01271,4.9952,-19.52711
18.28106,6.78367,6.0271,-19.09151
18.29109,8.55329,6.90084,-18.45496
18.30113,9.83134,7.38925,-17.94664
18.31116,10.57968,7.42352,-17.27357
18.3212,10.67081,6.54754,-15.84453
18.33124,9.72794,5.31647,-13.89265
18.34127,8.12787,4.35356,-12.01485
18.35131,6.70945,3.25028,-10.75071
18.36135,5.68683,2.37984,-9.72255
18.37138,5.34924,1.85715,-8.40784
18.38142,5.15292,1.25396,-7.09941
18.39146,4.58145,0.86401,-6.24827
18.4015,3.83177,0.78246,-6.32084
18.41153,3.15227,0.85323,-7.02399
18.42157,2.64918,1.09939,-7.74943
18.43223,2.08804,1.58466,-8.73569
18.44227,1.8778,1.60546,-8.92947
18.45231,1.90593,1.54591,-8.59503
18.46234,1.95741,1.56581,-7.85717
18.47238,2.00948,1.58825,-7.38671
18.48242,1.87092,1.5504,-7.2652
18.49245,1.47498,1.42335,-7.23617
18.50249,1.03085,1.1989,-7.22929
18.51253,0.81792,1.05225,-7.50837
18.52256,0.83124,1.0129,-7.99633
18.5326,1.06841,0.99135,-8.34409
18.54264,1.24843,1.0545,-8.20538
18.55267,1.27102,1.08218,-7.84101
18.56271,1.02711,1.02442,-7.76769
18.57275,0.70255,0.91324,-8.3598
18.58278,0.40238,0.73352,-9.10724
18.59282,0.35659,0.75328,-9.63217
18.60286,0.50473,0.82465,-9.95285
18.61289,0.72559,0.87822,-9.96631
18.62293,1.00078,0.95589,-9.77193
18.63297,1.05165,0.96606,-9.58564
18.643,0.85488,0.91533,-9.74231
18.65304,0.53376,0.70464,-10.01599
18.66308,0.30481,0.38143,-10.00208
18.67311,0.34611,0.3506,-9.81383
18.68315,0.60768,0.55321,-9.90272
18.69319,0.8887,0.68354,-10.27397
18.70322,0.97923,0.65122,-10.67679
18.71326,0.85817,0.59062,-10.7552
18.7233,0.56563,0.50383,-10.39488
18.73333,0.22386,0.23987,-9.98352
18.74337,-0.05791,0.00673,-9.72585
18.75341,-0.11268,-0.12734,-9.69472
18.76344,0.13318,-0.04444,-9.75637
18.77348,0.4757,0.21293,-9.86142
18.78352,0.61157,0.37619,-10.1773
18.79355,0.50548,0.27458,-10.33457
18.80359,0.29194,0.11238,-10.15695
18.81363,0.01451,0.03023,-9.73438
18.82366,-0.06928,0.03606,-9.37749
18.8337,0.02274,0.0015,-9.25105
18.84374,0.14365,0.06509,-9.50603
18.85377,0.36856,0.25648,-9.93848
18.86381,0.59616,0.42228,-10.04727
18.87385,0.65272,0.42332,-10.07166
18.88388,0.4766,0.26606,-9.94626
18.89392,0.26291,0.11642,-9.79857
18.90396,0.10924,0.07242,-9.77163
18.91399,0.07931,0.10549,-9.7863
18.92403,0.21548,0.15248,-9.86755
18.93407,0.34761,0.23598,-9.94207
18.9441,0.45505,0.23762,-10.0537
18.95414,0.51386,0.37858,-10.01629
18.96418,0.60813,0.49859,-9.9111
18.97421,0.7012,0.44547,-9.83089
18.98425,0.5773,0.22146,-9.87339
18.99429,0.44622,0.1453,-9.93249
19.00433,0.17717,0.18899,-10.03934
19.01436,-0.28566,0.22461,-10.09515
19.0244,-1.69016,0.29568,-10.00507
19.03444,-0.51116,-0.54244,-7.12455
19.04447,0.95589,-0.76585,-8.13849
19.05451,1.20503,-0.40387,-10.02452
19.06455,1.20787,0.00269,-10.68517
19.07458,0.90411,0.14081,-11.27355
19.08462,0.64374,-0.04534,-11.38428
19.09466,0.60079,-0.12136,-10.63355
19.10469,0.60109,-0.12465,-9.98696
19.11473,0.64239,-0.17119,-9.71028
19.12477,0.58209,-0.09292,-9.74171
19.1348,0.63312,-0.01003,-9.65342
19.14484,0.77288,-0.00269,-9.59925
19.15488,0.96905,-0.02215,-9.06879
19.16491,1.05809,-0.04325,-8.54521
19.17495,0.85697,-0.2255,-9.15483
19.18499,0.66589,-0.46986,-9.82999
19.19502,0.61262,-0.52732,-10.23027
19.20506,0.64823,-0.29269,-10.02362
19.2151,0.57206,-0.0817,-9.62394
19.22513,0.4118,-0.26546,-9.26765
19.23517,0.40342,-0.3723,-9.26092
19.24521,0.54199,-0.3503,-9.30701
19.25524,0.66334,-0.31993,-9.34158
19.26528,0.66634,-0.31409,-9.51441
19.27532,0.60065,-0.40522,-9.6211
19.28535,0.47854,-0.50203,-9.61377
19.29539,0.38741,-0.61666,-9.47086
19.30543,0.41016,-0.66319,-9.40742
19.31546,0.43096,-0.6418,-9.45949
19.3255,0.50278,-0.52313,-9.581
19.33554,0.58284,-0.35793,-9.71836
19.34557,0.57356,-0.25199,-9.84047
19.35561,0.48902,-0.28267,-9.90002
19.36565,0.36661,-0.41584,-9.90107
19.37568,0.25184,-0.59242,-9.79004
19.38572,0.19004,-0.72694,-9.63352
19.39576,0.25573,-0.74879,-9.54493
19.40579,0.33564,-0.69851,-9.53685
19.41583,0.40492,-0.57506,-9.59551
19.42587,0.48513,-0.51984,-9.64788
19.4359,0.42871,-0.55411,-9.73767
19.44594,0.32127,-0.6614,-9.89179
19.45598,0.28611,-0.70913,-9.98831
19.46601,0.2906,-0.6388,-9.8909
19.47605,0.35539,-0.54857,-9.71073
19.48609,0.48917,-0.4956,-9.60629
19.49613,0.53241,-0.44757,-9.64833
19.50616,0.4552,-0.44143,-9.81293
19.5162,0.34222,-0.51715,-9.85019
19.52624,0.21308,-0.67606,-9.75562
19.53627,0.13303,-0.75866,-9.767
19.54631,0.19363,-0.64958,-9.79767
19.55635,0.3726,-0.49605,-9.80366
19.56638,0.44113,-0.44577,-9.87204
19.57642,0.40537,-0.48737,-9.87937
19.58646,0.33579,-0.58149,-9.82969
19.59649,0.23583,-0.65437,-9.86172
19.60653,0.18316,-0.59256,-9.89643
19.61656,0.24316,-0.46088,-9.87878
19.6266,0.2695,-0.49665,-9.90391
19.63664,0.27414,-0.52837,-9.83987
19.64668,0.31035,-0.55201,-9.68425
19.65671,0.27144,-0.50503,-9.53446
19.66675,0.15637,-0.52134,-9.42268
19.67679,0.08769,-0.64374,-9.56813
19.68682,0.09741,-0.65945,-9.65611
19.69686,0.20949,-0.55411,-9.49989
19.7069,0.35838,-0.47884,-9.43211
19.71693,0.45235,-0.48438,-9.47356
19.72697,0.41988,-0.53899,-9.54553
19.73701,0.18854,-0.61785,-9.64295
19.74704,0.06345,-0.68474,-9.64579
19.75708,0.0841,-0.63102,-9.48822
19.76712,0.1447,-0.56413,-9.49451
19.77715,0.20665,-0.52702,-9.68739
19.78719,0.25049,-0.47136,-9.92292
19.79723,0.29688,-0.41046,-10.05445
19.80726,0.36152,-0.37005,-10.02288
19.8173,0.35958,-0.43051,-9.82416
19.82734,0.32741,-0.50054,-9.70131
19.83737,0.27848,-0.49425,-9.69233
19.84741,0.19722,-0.53929,-9.63846
19.85745,0.20934,-0.59406,-9.64369
19.86748,0.21952,-0.57311,-9.64444
19.87752,0.24511,-0.53795,-9.75517
19.88756,0.36751,-0.49321,-9.93145
19.89759,0.4112,-0.42766,-9.95539
19.90763,0.47091,-0.36661,-9.84271
19.91767,0.4537,-0.31618,-9.86531
19.9277,0.372,-0.35105,-9.89943
19.93774,0.26621,-0.40297,-9.95329
19.94778,0.24211,-0.39654,-9.94955
19.95781,0.31514,-0.43604,-9.89643
19.96785,0.33728,-0.52224,-9.71328
19.97789,0.33668,-0.50383,-9.57307
19.98792,0.31439,-0.47375,-9.65462
19.99796,0.30002,-0.40312,-9.72106
20.008,0.34312,-0.33534,-9.71732
20.01803,0.46358,-0.38981,-9.68933
20.02807,0.44891,-0.47884,-9.57037
20.03811,0.37903,-0.51415,-9.5171
20.04814,0.35015,-0.47645,-9.6428
20.05818,0.38861,-0.42437,-9.72495
20.06822,0.44502,-0.37035,-9.79124
20.07826,0.48872,-0.34656,-9.87937
20.08829,0.58119,-0.37858,-9.92037
20.09833,0.60768,-0.36317,-9.79064
20.10836,0.60409,-0.30646,-9.73961
20.1184,0.65496,-0.26276,-9.73003
20.12844,0.70614,-0.25319,-9.81967
20.13848,0.69522,-0.22281,-9.91873
20.14851,0.58014,-0.29224,-9.92771
20.15855,0.48812,-0.40806,-9.77702
20.16858,0.47031,-0.38143,-9.477
20.17862,0.42347,-0.32741,-9.38542
20.18866,0.40342,-0.36751,-9.51965
20.1987,0.42407,-0.37813,-9.71717
20.20873,0.46029,-0.31873,-9.79049
20.21877,0.3711,-0.30137,-9.57711
20.22881,0.13722,-0.34267,-9.26885
20.23884,-0.14934,-0.37769,-9.1445
20.24888,-0.47764,-0.45834,-9.16051
20.25892,-0.8872,-0.55097,-9.27229
20.26895,-1.36065,-0.66035,-9.3124
20.27899,-1.75974,-0.72829,-9.25987
20.28903,-2.01248,-0.85114,-9.28097
20.29906,-2.12051,-0.92596,-9.32272
20.3091,-2.19967,-0.79069,-9.34113
20.31914,-2.24052,-0.51909,-9.42747
20.32917,-2.25773,-0.27638,-9.37659
20.33921,-2.35814,-0.02873,-9.32437
20.34925,-2.69961,0.11193,-9.47071
20.35928,-3.20239,0.06779,-9.47236
20.36932,-3.80932,-0.25004,-9.24925
20.37936,-4.56065,-0.78799,-9.05726
20.38939,-5.35329,-1.28778,-9.03153
20.39943,-6.11045,-1.55653,-9.13014
20.40947,-6.91505,-1.66397,-9.46622
20.4195,-7.4512,-1.5887,-9.95853
20.42954,-7.62254,-1.45298,-10.36869
20.43958,-7.45016,-1.28943,-10.91008
20.44961,-7.12859,-0.85174,-11.68296
20.45965,-6.72561,-0.13273,-12.50641
20.46969,-6.29091,0.60633,-13.60326
20.47972,-6.00361,1.19575,-14.7423
20.48976,-5.64867,1.51149,-15.49946
20.4998,-5.04024,1.72682,-16.05192
20.50983,-4.13718,2.15224,-16.94197
20.51987,-3.19521,2.90252,-18.22691
20.52991,-2.09672,3.60282,-19.45588
20.53994,-0.87747,4.09827,-20.48359
20.54998,0.19872,4.36313,-21.09337
20.56002,1.01843,4.35984,-21.46297
20.57005,1.72787,4.08122,-21.8836
20.58009,2.40258,3.65984,-22.24153
20.59013,2.87978,3.29936,-22.70332
20.60016,3.2434,3.07805,-23.09327
20.6102,3.51484,2.94996,-22.96294
20.62024,3.93996,3.12922,-22.11898
20.63028,4.48868,3.41413,-20.66136
20.64031,5.19602,3.56033,-19.23367
20.65035,5.95647,3.62707,-18.28706
20.66039,6.47901,3.67929,-17.72562
20.67042,6.77155,3.66762,-17.20099
20.68046,7.09357,3.49134,-16.67786
20.69049,7.49984,3.40037,-16.21278
20.70053,7.86884,3.5524,-15.61992
20.71057,8.24488,3.56946,-14.88969
20.7206,8.75335,3.39423,-13.82442
20.73064,9.37539,2.97958,-12.50462
20.74068,10.26275,2.49221,-11.37141
20.75072,11.38353,2.11483,-10.2198
20.76075,12.87258,1.74507,-9.66569
20.77079,14.08973,1.49922,-9.06594
20.78082,14.64428,1.66158,-8.01848
20.79086,14.40292,1.75974,-6.5221
20.8009,13.42803,1.66158,-5.04069
20.81094,12.24859,1.88454,-4.44349
20.82097,11.27579,2.27075,-4.33291
20.83101,10.62053,2.96597,-4.07972
20.84105,9.98083,3.64607,-3.28739
20.85108,9.20885,4.15169,-2.18755
20.86112,8.65504,4.84512,-1.41467
20.87116,8.23665,5.57041,-1.17675
20.88119,7.70843,5.71676,-0.62698
20.89123,7.20535,5.36047,0.52209
20.90127,7.04958,5.07631,1.87017
20.9113,6.71978,4.61363,3.30819
20.92134,6.03952,3.75575,4.12296
20.93138,5.03052,2.5609,4.67917
20.94141,3.58906,1.55818,5.3069
20.95145,2.28631,1.10298,6.0681
20.96149,1.29541,0.92222,6.84233
20.97152,0.40387,0.71841,6.66037
20.98156,-0.34177,0.51939,5.59136
20.9916,-0.75717,0.05986,4.03303
21.00163,-0.96397,-0.34477,2.9733
21.01167,-1.22314,-0.41913,2.37146
21.02171,-1.54231,-0.44801,1.9607
21.03174,-1.57913,-0.48123,1.98898
21.04178,-1.46316,-0.55456,2.16017
21.05182,-1.33297,-0.43948,2.01921
21.06185,-1.21117,-0.25528,1.63973
21.07189,-1.24873,-0.21907,1.1543
21.08193,-1.14099,-0.36916,0.63461
21.09196,-0.85608,-0.47016,0.23837
21.102,-0.81478,-0.38801,-0.11073
21.11204,-0.96412,-0.13647,-0.2496
21.12207,-1.1959,0.21712,-0.77767
21.13211,-1.76109,0.27743,-2.44747
21.14215,-2.41186,0.18166,-4.21694
21.15218,-3.02986,0.18765,-5.21277
21.16222,-3.90015,0.21578,-5.30974
21.17226,-4.97216,0.31798,-4.97276
21.1823,-5.82449,0.18465,-5.21966
21.19233,-6.31396,-0.38292,-6.00241
21.20237,-6.76811,-0.87538,-6.79265
21.21241,-7.37609,-0.91429,-7.6185
21.22244,-8.24802,-0.88286,-8.24024
21.23248,-9.30641,-1.23346,-8.54341
21.24252,-10.0344,-1.70422,-8.39497
21.25255,-9.98307,-2.06829,-7.97763
21.26259,-9.68305,-1.94349,-8.03928
21.27262,-9.30192,-1.58287,-8.38928
21.28266,-9.09138,-1.69854,-8.37716
21.2927,-9.34726,-1.97252,-7.8874
21.30274,-9.81653,-2.13892,-7.42158
21.31277,-10.30853,-1.9399,-7.19936
21.32281,-10.28833,-1.40974,-7.35559
21.33285,-9.7878,-0.96172,-7.78235
21.34288,-9.33619,-0.70988,-8.49717
21.35292,-9.14316,-0.78485,-9.07343
21.36296,-9.35953,-0.46717,-9.51246
21.37299,-9.4764,0.37604,-10.00657
21.38303,-9.21364,1.49264,-10.58911
21.39307,-8.68362,2.53726,-11.68939
21.4031,-8.04796,2.88367,-12.81302
21.41314,-7.45704,2.99934,-13.14851
21.42318,-6.84682,3.57469,-13.34139
21.43321,-6.09893,4.79155,-13.78836
21.44325,-5.41778,6.02052,-14.1846
21.45329,-4.60914,6.69658,-14.66508
21.46332,-3.91632,6.74641,-15.82552
21.47336,-3.65879,6.13035,-17.10911
21.4834,-3.80154,5.50277,-17.92823
21.49343,-3.98141,5.16474,-18.40423
21.50347,-3.83716,5.83168,-18.71712
21.51351,-2.91539,7.15238,-18.59786
21.52354,-1.47812,8.38509,-18.35425
21.53358,0.52089,9.13119,-19.02343
21.54362,2.87603,9.36911,-20.17459
21.55365,4.74576,9.19448,-21.06508
21.56369,5.97862,9.25853,-21.19736
21.57373,7.23767,9.71806,-20.64789
21.58376,8.36205,9.92232,-19.77087
21.5938,9.14286,9.61691,-18.954
21.60384,9.54748,8.83894,-18.24471
21.61387,9.74904,7.84625,-17.35138
21.62391,9.60584,6.89096,-16.26755
21.63395,9.19314,6.30438,-15.27231
21.64398,8.72058,5.76569,-14.55645
21.65402,8.32284,5.36301,-13.99471
21.66406,7.93109,5.29538,-13.7484
21.67409,7.4105,5.20021,-13.79509
21.68413,6.71125,4.8122,-13.76696
21.69417,5.98042,4.11518,-13.39451
21.7042,5.23702,3.15286,-12.55175
21.71424,4.5822,2.27195,-11.1492
21.72428,4.16471,1.61549,-9.34322
21.73431,4.09723,1.1335,-7.46422
21.74435,4.16127,0.84889,-5.81013
21.75439,4.27066,0.58793,-4.76341
21.76442,4.31809,0.35389,-4.57577
21.77446,4.31435,0.21323,-4.88642
21.7845,4.21185,0.30376,-5.09875
21.79454,4.30881,0.70479,-4.7911
21.80457,4.64131,1.18229,-4.2946
21.81461,4.98159,1.49533,-3.87771
21.82465,5.18659,1.57464,-3.94714
21.83468,5.13407,1.57673,-4.37017
21.84472,4.94433,1.70273,-4.82851
21.85476,4.82566,1.8564,-5.06508
21.86479,4.74142,1.87391,-5.04817
21.87483,4.61647,1.80598,-5.10593
21.88487,4.47731,1.77635,-5.31827
21.8949,4.31959,1.79041,-5.83691
21.90494,4.16801,1.67504,-6.57463
21.91498,3.98051,1.64063,-7.1241
21.92501,3.91018,1.66517,-7.35529
21.93505,3.91198,1.66547,-7.53066
21.94509,3.95806,1.56027,-7.69526
21.95512,3.91228,1.39358,-7.81842
21.96516,3.68557,1.28703,-7.92286
21.9752,3.43209,1.17271,-8.2585
21.98523,3.1394,1.02876,-8.53787
21.99527,2.92736,0.97249,-8.85795
22.00531,2.82725,1.06587,-9.34801
22.01534,2.6827,1.20428,-9.61107
22.02538,2.58948,1.16418,-9.8047
22.03542,2.45795,1.03011,-10.00851
22.04545,2.30427,0.90546,-10.08109
22.05549,2.17693,0.85458,-10.11012
22.06553,2.16989,0.81328,-10.27546
22.07556,2.15912,0.68669,-10.51234
22.0856,2.13817,0.60065,-10.61185
22.09564,2.22032,0.69641,-10.46116
22.10567,2.39989,0.76989,-10.20289
22.11571,2.51631,0.84081,-10.09036
22.12575,2.47486,0.87074,-10.11221
22.13578,2.38029,0.89648,-10.15007
22.14582,2.38462,0.91369,-10.26708
22.15586,2.45989,0.99704,-10.30449
22.16589,2.54369,1.10777,-10.35013
22.17593,2.50478,1.11974,-10.45548
22.18597,2.34632,1.0114,-10.45069
22.196,2.13009,0.90187,-10.18508
22.20604,2.05602,0.84022,-9.79004
22.21608,1.99901,0.75911,-9.42088
22.22611,1.97148,0.6587,-9.31808
22.23615,1.97552,0.64464,-9.51695
22.24619,2.04315,0.73053,-9.71866
22.25622,2.14042,0.83094,-9.75203
22.26626,2.21149,0.85338,-9.68784
22.2763,2.21808,0.77048,-9.5777
22.28633,2.08954,0.72335,-9.50767
22.29637,2.00859,0.72619,-9.5186
22.30641,2.01607,0.71123,-9.59551
22.31644,2.06171,0.71287,-9.61272
22.32648,2.15089,0.7657,-9.44632
22.33652,2.27913,0.79637,-9.20481
22.34655,2.39151,0.75283,-9.12311
22.35659,2.3321,0.70315,-9.05712
22.36663,2.24546,0.62399,-9.05652
22.37666,2.2715,0.64614,-9.13567
22.3867,2.40902,0.75642,-9.07298
22.39674,2.57182,0.81687,-8.90823
22.40677,2.6426,0.79817,-8.91391
22.41681,2.65667,0.79906,-9.22426
22.42685,2.65756,0.84081,-9.45575
22.43689,2.72116,0.89768,-9.42956
22.44692,2.76171,0.95065,-9.34457
22.45696,2.67073,0.92671,-9.31524
22.46699,2.51391,0.81538,-9.3941
22.47703,2.39136,0.70958,-9.54104
22.48707,2.28616,0.70195,-9.53281
22.4971,2.24412,0.68489,-9.3935
22.50714,2.19683,0.59271,-9.32901
22.51718,2.02549,0.49276,-9.22785
22.52722,1.77186,0.44846,-9.15393
22.53725,1.63,0.36302,-9.2271
22.54729,1.44804,0.30257,-9.33634
22.55732,1.29466,0.22595,-9.3332
22.56736,1.19396,0.19408,-9.24132
22.5774,1.04462,0.17642,-9.19284
22.58744,0.85249,0.13647,-9.23803
22.59747,0.68295,0.145,-9.27978
22.60751,0.56009,0.20171,-9.37375
22.61754,0.4329,0.24256,-9.50633
22.62758,0.38876,0.2903,-9.63666
22.63762,0.36946,0.3509,-9.6401
22.64766,0.28805,0.3708,-9.59342
22.65769,0.12151,0.34102,-9.71103
22.66773,0.07721,0.37394,-10.00836
22.67777,0.13393,0.51101,-10.36405
22.6878,0.24406,0.62623,-10.61769
22.69784,0.2273,0.70135,-10.76508
22.70788,0.15652,0.71796,-10.89871
22.71791,0.21129,0.75088,-11.03428
22.72795,0.14664,0.81283,-11.2122
22.73799,-0.03546,0.82226,-11.5004
22.74802,-0.01841,0.8869,-11.92223
22.75806,-0.06075,1.15146,-12.52152
22.7681,-0.32037,1.4844,-13.25954
22.77813,-0.96008,1.57359,-14.19866
22.78817,-1.6116,1.39612,-15.1963
22.79821,-1.81121,0.99838,-16.20276
22.80824,-1.99242,0.70599,-17.28449
22.81828,-1.97447,0.44128,-18.46887
22.82832,-1.29362,0.38442,-19.46187
22.83835,-0.35225,0.72634,-20.2135
22.84839,0.4546,1.2405,-20.84452
22.85843,0.77183,1.42679,-20.89016
22.86846,0.89468,1.43248,-20.16681
22.8785,1.36036,1.44729,-18.98916
22.88854,2.24576,1.34809,-17.59319
22.89857,3.18728,1.14233,-16.06809
22.90861,4.30597,0.98312,-14.81592
22.91865,5.33668,0.89887,-14.0384
22.92868,6.24019,0.96172,-13.35964
22.93872,7.05092,1.11929,-11.99076
22.94876,8.06951,1.26608,-10.72079
22.95879,9.24551,1.46166,-10.28459
22.96883,10.18972,1.5676,-10.33637
22.97887,10.77825,1.77171,-10.62143
22.9889,11.22701,2.19518,-11.02769
22.99894,11.88871,2.50089,-10.93402
23.00898,12.77516,2.67747,-10.13091
23.01901,13.07294,2.83429,-9.28591
23.02905,12.59604,2.74645,-8.62436
23.03909,11.91564,2.34377,-8.0125
23.04912,11.27983,1.94679,-7.31084
23.05916,10.70208,1.567,-6.58286
23.0692,10.37452,1.29736,-5.8019
23.07923,10.21965,1.16343,-5.24106
23.08927,10.18538,0.87014,-5.26171
23.09931,10.23416,0.53436,-5.66737
23.10934,10.32634,0.41824,-6.06092
23.11938,10.42525,0.36556,-6.15145
23.12942,10.06837,0.3286,-6.0512
23.13945,9.41011,0.34222,-6.1501
23.14949,8.63244,0.27728,-6.30244
23.15953,7.78564,-0.00284,-6.28822
23.16956,7.00304,-0.35479,-5.95588
23.1796,6.24946,-0.3087,-5.24225
23.18964,5.81222,0.15907,-4.65867
23.19967,6.04611,0.64733,-3.98156
23.20971,6.58525,1.03504,-3.23367
23.21975,6.98673,1.13515,-2.67447
23.22979,7.24246,1.21581,-2.11528
23.23982,7.32955,1.38101,-1.27357
23.24986,7.16166,1.6303,-0.20066
23.25989,6.68701,1.8808,0.85443
23.26993,5.92191,2.00275,1.68297
23.27997,4.94373,1.80702,1.88229
23.29,4.00505,1.20982,1.80119
23.30004,3.11396,0.26755,1.20548
23.31008,2.20715,-0.36781,0.47031
23.32012,1.59738,-0.57476,0.35823
23.33015,1.16209,-0.69013,1.13784
23.34019,0.69956,-1.03085,2.15478
23.35023,0.05986,-1.44281,2.48653
23.36026,-0.50144,-1.8172,2.05183
23.3703,-0.93853,-2.29679,1.33881
23.38034,-1.135,-2.86361,0.95768
23.39037,-1.27237,-3.26988,0.90306
23.40041,-1.32325,-3.24175,1.15924
23.41045,-1.35482,-3.16992,1.45837
23.42048,-1.57838,-3.34171,1.45358
23.43052,-1.85955,-3.70548,1.08457
23.44056,-2.24756,-4.05084,0.28356
23.45059,-2.54264,-4.23444,-0.391
23.46063,-2.79613,-4.25091,-0.63895
23.47067,-2.99006,-4.28248,-0.59481
23.4807,-3.19357,-4.37002,-0.30526
23.49074,-3.39453,-4.39022,-0.01317
23.50078,-3.46381,-4.51307,-0.20919
23.51081,-3.34694,-4.38363,-0.89977
23.52085,-3.20703,-3.97722,-1.54127
23.53089,-3.27721,-3.71086,-2.26402
23.54092,-3.68797,-3.65954,-2.89654
23.55096,-4.26976,-3.64128,-3.29457
23.561,-5.15008,-3.73466,-4.12745
23.57103,-6.25066,-4.00146,-5.04398
23.58107,-6.72726,-4.19793,-5.46402
23.59111,-6.6487,-4.05054,-5.61051
23.60114,-6.44235,-3.79002,-5.80878
23.61118,-6.41646,-3.43239,-5.94914
23.62122,-6.64361,-3.05979,-6.57478
23.63125,-6.6273,-2.69527,-7.31384
23.64129,-6.24662,-2.25983,-7.6788
23.65133,-5.70059,-1.75899,-7.64783
23.66136,-5.39982,-1.44969,-7.40975
23.6714,-5.66947,-1.28269,-7.10569
23.68144,-6.33177,-1.07874,-7.41664
23.69147,-6.76661,-0.85159,-8.06726
23.70151,-6.50699,-0.62339,-8.82338
23.71155,-5.90709,-0.32905,-9.96766
23.72158,-5.50696,-0.22161,-10.79112
23.73162,-5.79083,-0.52807,-10.94958
23.74166,-6.66172,-0.67187,-11.17972
23.75169,-7.44567,-0.17657,-11.52988
23.76173,-7.63496,0.12255,-12.02607
23.77177,-7.49729,0.0,-12.56746
23.7818,-7.09163,-0.11328,-12.80284
23.79184,-6.69524,-0.01496,-12.74329
23.80188,-6.65573,0.38517,-13.08446
23.81191,-6.76078,0.65915,-13.62346
23.82195,-6.67593,0.99374,-14.28171
23.83199,-6.67354,1.29481,-15.79455
23.84202,-6.81465,1.8172,-17.61594
23.85206,-6.52166,2.65607,-18.7858
23.8621,-6.05404,3.7782,-19.61614
23.87213,-5.07092,4.70535,-20.7082
23.88217,-3.54491,4.86352,-21.8625
23.89221,-2.39989,4.46743,-22.52644
23.90224,-1.3418,3.76623,-21.93044
23.91228,-0.60528,2.6022,-19.94445
23.92232,-0.35629,1.39507,-17.88992
23.93235,-0.06464,0.54693,-16.58089
23.94239,0.36811,0.64554,-16.22805
23.95243,1.18992,1.35886,-16.5788
23.96246,2.59262,1.85551,-16.92252
23.9725,4.21604,2.19129,-16.98342
23.98254,5.5746,2.03851,-16.84904
23.99257,6.54231,1.89636,-16.32681
24.00261,7.42023,2.12785,-14.79661
24.01265,8.71025,2.48638,-12.32415
24.02268,10.37647,2.53486,-9.69861
24.03272,11.95365,2.48728,-8.06337
24.04276,13.24008,2.71173,-7.56523
24.05279,14.19911,3.12099,-8.06966
24.06283,14.68738,3.47848,-9.01866
24.07287,14.90002,3.53713,-9.12595
24.0829,14.5548,3.21646,-8.23156
24.09294,13.0891,2.57003,-7.27688
24.10298,10.8791,1.79161,-6.5462
24.11302,8.71878,0.97444,-5.94405
24.12305,7.04718,0.35748,-5.71077
24.13309,5.94645,0.05118,-5.9448
24.14313,5.1827,-0.16236,-6.69928
24.15316,4.66585,-0.39863,-7.43025
24.1632,4.3151,-0.49889,-7.87094
24.17324,3.92065,-0.46687,-7.9073
24.18327,3.32465,-0.53301,-7.65456
24.19331,2.56344,-0.70404,-7.48323
24.20335,1.74807,-0.89603,-7.63616
24.21338,1.05599,-1.11405,-7.95054
24.22342,0.91459,-1.38041,-8.18593
24.23346,1.17166,-1.30858,-8.29441
24.24349,1.71515,-0.79203,-8.51303
24.25353,2.22766,-0.30855,-8.62257
24.26357,2.38777,-0.08948,-8.81754
24.2736,2.32971,0.07961,-8.89401
24.28364,2.27165,0.11313,-8.90059
24.29368,1.98285,0.02649,-9.11158
24.30371,1.71799,-0.02529,-9.51531
24.31375,1.63434,-0.14754,-10.03275
24.32378,1.39372,-0.24541,-10.45638
24.33382,1.04567,-0.1845,-10.76044
24.34386,0.86131,-0.12644,-10.86653
24.3539,0.78605,-0.10609,-10.66976
24.36393,0.7627,-0.17223,-10.73201
24.37397,0.67591,-0.29194,-10.98056
24.38401,0.55426,-0.46043,-11.15234
24.39404,0.27758,-0.61516,-11.21908
24.40408,0.09532,-0.79877,-10.86264
24.41412,0.0401,-0.89004,-10.14214
24.42415,0.07257,-0.93883,-9.76011
24.43419,0.17956,-1.0741,-9.75682
24.44423,0.38562,-1.24065,-9.75308
24.45426,0.6822,-1.3608,-9.76804
24.4643,0.82435,-1.33716,-9.5367
24.47434,0.97773,-1.19201,-9.27244
24.48437,1.25546,-0.98611,-9.33544
24.49441,1.53738,-0.77722,-9.36402
24.50445,1.80119,-0.67307,-9.46907
24.51448,2.05647,-0.57087,-9.7224
24.52452,2.21643,-0.44143,-9.73722
24.53456,2.36053,-0.31454,-9.69352
24.54459,2.51197,-0.24645,-9.66868
24.55463,2.63766,-0.25588,-9.53551
24.56467,2.71712,-0.3105,-9.4571
24.5747,2.76141,-0.40193,-9.41939
24.58474,2.78625,-0.40477,-9.20466
24.59478,2.71009,-0.34791,-8.99636
24.60481,2.61537,-0.37858,-9.14196
24.61485,2.56569,-0.45116,-9.29848
24.62489,2.53875,-0.49171,-9.29788
24.63492,2.48773,-0.54124,-9.25464
24.64496,2.41051,-0.67262,-9.17129
24.655,2.34003,-0.9101,-9.03407
24.66503,2.30098,-1.01679,-8.9193
24.67507,2.19129,-0.94167,-8.8367
24.68511,2.02669,-0.88406,-8.86004
24.69514,1.87481,-0.87104,-9.20615
24.70518,1.56177,-0.94062,-9.32437
24.71522,1.1362,-1.24394,-9.25673
24.72525,0.73337,-1.57344,-9.10036
24.73529,0.61366,-1.53977,-9.07387
24.74533,0.60124,-1.44266,-9.29923
24.75536,0.66858,-1.52765,-9.75637
24.7654,0.82361,-1.47318,-10.21426
24.77544,1.00781,-1.18543,-10.48885
24.78547,1.2818,-0.89169,-10.51937
24.79551,1.50057,-0.78545,-10.33322
24.80555,1.58137,-0.74101,-10.14483
24.81558,1.63539,-0.66903,-10.09141
24.82562,1.734,-0.63835,-10.11281
24.83566,1.76842,-0.5978,-10.07989
24.84569,1.78742,-0.67427,-10.0537
24.85573,1.80238,-0.78051,-9.99684
24.86577,1.81825,-0.87493,-9.8053
24.8758,1.81391,-0.91339,-9.65522
24.88584,1.79386,-0.88032,-9.59895
24.89588,1.85521,-0.89259,-9.53102
24.90591,1.78607,-0.87014,-9.50558
24.91595,1.75271,-0.77662,-9.69891
24.92599,1.80553,-0.78545,-9.90825
24.93602,1.7967,-0.87987,-9.91559
24.94606,1.70467,-0.92506,-9.90601
24.9561,1.66517,-0.91563,-9.80171
24.96613,1.65365,-0.85398,-9.43585
24.97617,1.65409,-0.84066,-9.2708
24.98621,1.6716,-0.85668,-9.39275
24.99624,1.73385,-0.91174,-9.44303
25.00628,1.78548,-0.97848,-9.50693
25.01632,1.73894,-1.01454,-9.54942
25.02635,1.6716,-1.0099,-9.46188
25.03639,1.68058,-0.96322,-9.24192
25.04643,1.71814,-0.89379,-9.14854
25.05646,1.73535,-0.88765,-9.21453
25.0665,1.76812,-0.97908,-9.37524
25.07654,1.72368,-1.04552,-9.49361
25.08657,1.60726,-1.04297,-9.60449
25.09661,1.5673,-0.94391,-9.63906
25.10665,1.71964,-0.79817,-9.50289
25.11668,1.82438,-0.7039,-9.40368
25.12672,1.84219,-0.6415,-9.57785
25.13676,1.85042,-0.68953,-9.76804
25.14679,1.85491,-0.73038,-9.91125
25.15683,1.83291,-0.65377,-9.96272
25.16687,1.81989,-0.61486,-9.97544
25.1769,1.84728,-0.64673,-9.93893
25.18694,1.84159,-0.65721,-9.91304
25.19698,1.7563,-0.73203,-9.89643
25.20701,1.69884,-0.82525,-9.85438
25.21705,1.64586,-0.87718,-9.74006
25.22709,1.6327,-0.93733,-9.65312
25.23712,1.69554,-1.00512,-9.622
25.24716,1.68208,-1.04537,-9.52114
25.2572,1.57688,-1.09206,-9.537
25.26723,1.52466,-1.15011,-9.52847
25.27727,1.55189,-1.22598,-9.38677
25.28731,1.57793,-1.26923,-9.26391
25.29734,1.64646,-1.24903,-9.27603
25.30738,1.65873,-1.19545,-9.23863
25.31742,1.63883,-1.21371,-9.14435
25.32745,1.63943,-1.22852,-9.18356
25.33749,1.64212,-1.22164,-9.25913
25.34753,1.6101,-1.26788,-9.32527
25.35757,1.54471,-1.30394,-9.41924
25.3676,1.47109,-1.20817,-9.27978
25.37764,1.53648,-1.11854,-9.1888
25.38768,1.63868,-1.08547,-9.18835
25.39771,1.72547,-1.08053,-9.27918
25.40775,1.7563,-1.10492,-9.44168
25.41779,1.63554,-1.10822,-9.63352
25.42782,1.6321,-1.09939,-9.68649
25.43786,1.73086,-1.02502,-9.42492
25.4479,1.76153,-0.8875,-9.26795
25.45793,1.82947,-0.85413,-9.60868
25.46797,1.8995,-0.89618,-9.85214
25.47801,1.94664,-0.90965,-9.91768
25.48804,2.00978,-0.81014,-9.90391
25.49808,2.08191,-0.75492,-9.68155
25.50812,2.04136,-0.81268,-9.45934
25.51815,2.01248,-0.87329,-9.46188
25.52819,1.99198,-0.85488,-9.4767
25.53823,1.98689,-0.93164,-9.48613
25.54826,2.03642,-0.9912,-9.4767
25.5583,2.04375,-0.97818,-9.39694
25.56834,1.94319,-0.94242,-9.39934
25.57837,1.91042,-0.9927,-9.55331
25.58841,1.94245,-0.98432,-9.55915
25.59845,1.94738,-0.97908,-9.5162
25.60848,1.9836,-1.0512,-9.46922
25.61852,1.97327,-1.12991,-9.31554
25.62856,1.90414,-1.06557,-9.13657
25.63859,1.90429,-0.99868,-9.26855
25.64863,1.9194,-1.03519,-9.38318
25.65867,1.90608,-1.02936,-9.46114
25.6687,1.86329,-0.97324,-9.53311
25.67874,1.87301,-0.99748,-9.57112
25.68878,1.82857,-1.02128,-9.48238
25.69881,1.70886,-0.9921,-9.27768
25.70885,1.66487,-1.05076,-9.34666
25.71889,1.62447,-1.09041,-9.36013
25.72892,1.60022,-1.05599,-9.42118
25.73896,1.54621,-0.99644,-9.51501
25.749,1.54576,-0.98536,-9.5599
25.75903,1.55653,-0.94227,-9.51261
25.76907,1.58137,-0.89887,-9.5189
25.77911,1.57,-0.89034,-9.53985
25.78914,1.6098,-0.90576,-9.5804
25.79918,1.62851,-0.91264,-9.63891
25.80922,1.65813,-0.91444,-9.55122
25.81925,1.69869,-0.9297,-9.58384
25.82929,1.69165,-0.9279,-9.56813
25.83933,1.71874,-0.89977,-9.53281
25.84936,1.78592,-0.8875,-9.57262
25.8594,1.88199,-0.83348,-9.58354
25.86944,1.93272,-0.79383,-9.65207
25.87947,1.90189,-0.80011,-9.76101
25.88951,1.84174,-0.83588,-9.75009
25.89955,1.74762,-0.8682,-9.76744
25.90958,1.6942,-0.90187,-9.6606
25.91962,1.66307,-0.85219,-9.52997
25.92966,1.61758,-0.82331,-9.58204
25.93969,1.54022,-0.8688,-9.58653
25.94973,1.50506,-0.92865,-9.64384
25.95977,1.48889,-0.93598,-9.66509
25.9698,1.46944,-0.94975,-9.63352
25.97984,1.50116,-0.93928,-9.62439
25.98988,1.51972,-0.88945,-9.55541
25.99991,1.51433,-0.85174,-9.51965
26.00995,1.56192,-0.8676,-9.53206
26.01999,1.62536,-0.89364,-9.54329
26.03002,1.68851,-0.91623,-9.56274
26.04006,1.74911,-0.96801,-9.59237
26.0501,1.86598,-1.03729,-9.62275
26.06013,2.01113,-0.89109,-9.65432
26.07017,2.16481,-0.71033,-9.75084
26.08021,2.28631,-0.62982,-9.79767
26.09024,2.36772,-0.57102,-9.86112
26.10028,2.42278,-0.47839,-9.97903
26.11032,2.4352,-0.44442,-9.98113
26.12035,2.42727,-0.44412,-9.96931
26.13039,2.39375,-0.45056,-9.9093
26.14043,2.36951,-0.46762,-9.79872
26.15046,2.37026,-0.50952,-9.70505
26.1605,2.37415,-0.5791,-9.60195
26.17054,2.32761,-0.62174,-9.48792
26.18057,2.25609,-0.62893,-9.47386
26.19061,2.21164,-0.63312,-9.50558
26.20065,2.17468,-0.67187,-9.41984
26.21068,2.08101,-0.66873,-9.41071
26.22072,1.99811,-0.72769,-9.45171
26.23076,1.91746,-0.77482,-9.36043
26.24079,1.86029,-0.76121,-9.28771
26.25083,1.82992,-0.73517,-9.17817
26.26087,1.79056,-0.75043,-9.23084
26.2709,1.65589,-0.81014,-9.34592
26.28094,1.51792,-0.84994,-9.38512
26.29098,1.44101,-0.84366,-9.32856
26.30101,1.34285,-0.8474,-9.25718
26.31105,1.2788,-0.89513,-9.25119
26.32109,1.2161,-0.91892,-9.36357
26.33112,1.11106,-0.91429,-9.46114
26.34116,0.88421,-0.97594,-9.65028
26.3512,0.5556,-1.16463,-9.94731
26.36123,0.23284,-1.34734,-10.14603
26.37127,-0.13572,-1.51777,-10.38365
26.38131,-0.48198,-1.72008,-10.49019
26.39134,-0.67995,-1.86852,-10.71046
26.40138,-0.79054,-1.85206,-11.03532
26.41142,-0.9906,-1.88618,-11.35555
26.42145,-1.23212,-2.08311,-11.80371
26.43149,-1.65439,-2.26611,-12.4084
26.44153,-2.10001,-2.57661,-13.03748
26.45156,-2.52334,-2.89968,-13.72102
26.4616,-2.77817,-3.06877,-14.21737
26.47164,-2.86571,-3.16513,-14.59086
26.48167,-2.72236,-3.19761,-14.85572
26.49171,-2.33719,-3.03525,-15.07973
26.50175,-1.90982,-2.64185,-15.17744
26.51178,-1.53154,-2.20222,-15.39202
26.52182,-1.18124,-1.87062,-15.64222
26.53186,-0.73038,-1.55339,-15.91531
26.54189,-0.10086,-1.20144,-16.04639
26.55193,0.67906,-0.908,-15.86263
26.56197,1.4449,-0.83124,-15.73574
26.572,2.02056,-0.86505,-15.87835
26.58204,2.4756,-0.93793,-16.15802
26.59208,3.02941,-1.04103,-16.33923
26.60211,3.76488,-1.09684,-16.36916
26.61215,4.67483,-1.05809,-16.32905
26.62219,5.61111,-1.06482,-16.28012
26.63222,6.49367,-1.07185,-16.21024
26.64226,7.44701,-0.95424,-16.15353
26.6523,8.55448,-0.57027,-16.22999
26.66233,9.5816,0.082,-16.34836
26.67237,10.27891,0.82645,-16.14275
26.68241,10.73216,1.45672,-15.32304
26.69244,10.88928,1.85102,-13.74706
26.70248,10.73814,2.07488,-11.70465
26.71252,10.43109,2.06081,-9.77193
26.72255,10.1577,2.02789,-8.08537
26.73259,10.00657,1.8585,-6.6686
26.74263,9.90092,1.82393,-5.37783
26.75266,9.96362,1.86733,-4.67887
26.7627,10.054,1.80613,-4.4375
26.77274,9.87069,1.66831,-4.30926
26.78277,9.27005,1.27596,-4.2949
26.79281,8.49014,0.71811,-4.53941
26.80285,7.64094,0.31259,-4.56544
26.81288,6.95276,0.0425,-4.1683
26.82292,6.4621,-0.23403,-3.19731
26.83296,6.08456,-0.3099,-2.0228
26.84299,5.64149,-0.38472,-1.07051
26.85303,5.29478,-0.72051,-0.66304
26.86307,5.20484,-0.89842,-0.38532
26.8731,5.14813,-0.72619,-0.25319
26.88314,5.04219,-0.77303,-0.48587
26.89318,4.82072,-1.06886,-0.6602
26.90321,4.64191,-1.5296,-0.59825
26.91325,3.80738,-2.01831,0.0
26.92329,2.21853,-2.47097,0.64943
26.93332,0.60753,-3.07939,1.0548
26.94336,-0.42796,-3.81965,0.9303
26.9534,-0.84605,-4.43915,0.32905
26.96343,-0.56503,-4.57771,-0.14081
26.97347,0.31663,-4.09498,-0.51236
26.98351,1.27491,-3.42521,-0.54962
26.99354,1.9607,-3.05635,-0.39175
27.00358,2.22212,-2.77368,-0.46522
27.01362,2.21449,-2.5808,-0.20845
27.02365,2.07054,-2.57676,0.09248
27.03369,1.83456,-2.57885,0.34701
27.04373,1.70871,-2.3321,0.60678
27.05376,1.61923,-2.01682,0.72709
27.0638,1.63105,-2.00095,0.51505
27.07384,1.50206,-2.08879,0.05971
27.08387,1.16328,-2.07413,-0.58389
27.09391,0.73577,-1.91117,-1.0961
27.10395,0.29359,-1.74986,-1.33477
27.11398,-0.36452,-1.6707,-1.36604
27.12402,-0.99195,-1.59559,-1.30753
27.13406,-1.60412,-1.42694,-1.40525
27.14409,-2.39734,-1.47228,-1.9622
27.15413,-3.3049,-1.75824,-2.93364
27.16417,-4.09468,-2.02699,-4.14466
27.1742,-4.78242,-2.25414,-5.20095
27.18424,-5.17252,-2.54429,-5.85008
27.19428,-5.27936,-2.65472,-6.06107
27.20431,-5.44007,-2.42622,-6.07708
27.21435,-5.74788,-2.13249,-6.30633
27.22439,-6.14038,-2.12231,-6.87031
27.23442,-6.523,-2.42922,-7.49355
27.24446,-6.94528,-2.65397,-7.80614
27.2545,-7.2679,-2.71024,-8.03524
27.26453,-7.44926,-2.62539,-8.14193
27.27457,-7.43938,-2.24082,-8.4038
27.28461,-7.29379,-1.77515,-8.6899
27.29464,-7.02608,-1.54231,-9.05038
27.30468,-6.7117,-1.3198,-9.63891
27.31472,-6.49966,-0.85922,-10.35836
27.32475,-6.48918,-0.34491,-11.17449
27.33479,-6.77454,0.01481,-11.85279
27.34483,-7.20191,0.01062,-12.26205
27.35486,-7.53231,-0.32621,-12.47409
27.3649,-7.89084,-0.58014,-12.52916
27.37494,-8.29082,-0.18944,-12.66548
27.38497,-8.63618,0.21638,-13.14701
27.39501,-8.98559,0.3292,-13.9133
27.40505,-8.99726,0.34521,-14.89672
27.41508,-8.64322,0.2074,-15.8146
27.42512,-8.32778,0.23553,-16.45191
27.43516,-7.92122,0.42632,-16.65422
27.44519,-7.10479,0.61875,-16.37529
27.45523,-6.26622,0.86221,-15.94658
27.46527,-5.64328,0.99285,-15.78063
27.4753,-4.82791,0.87508,-15.71434
27.48534,-3.93801,0.80834,-15.43886
27.49538,-2.83653,1.08562,-15.21006
27.50541,-1.28374,1.63404,-15.21216
27.51545,0.58838,1.98764,-15.40235
27.52549,2.52992,1.94738,-15.5478
27.53552,4.1692,2.09358,-15.82777
27.54556,5.60123,2.6643,-16.11926
27.5556,6.76946,3.4882,-16.15607
27.56563,7.9474,3.94011,-16.15503
27.57567,9.09782,3.84269,-16.12091
27.58571,9.9934,3.64368,-16.07063
27.59574,10.78423,3.82264,-15.88104
27.60578,11.70166,4.41581,-15.39532
27.61582,12.66293,5.08783,-14.32062
27.62585,13.29111,5.39608,-13.03418
27.63589,13.42219,5.25647,-12.33463
27.64593,13.02446,5.06643,-11.78576
27.65596,12.32355,4.76566,-11.233
27.666,11.24197,4.06281,-10.48885
27.67604,9.9081,3.16992,-9.29309
27.68607,8.71564,2.3957,-8.37716
27.69611,7.63107,1.75166,-7.75871
27.70615,6.65618,1.03579,-7.16315
27.71618,5.77496,0.37215,-6.68536
27.72622,5.00807,-0.12181,-6.39506
27.73626,4.49766,-0.39265,-6.39117
27.74629,4.03453,-0.52029,-6.63718
27.75633,3.42087,-0.68354,-6.96159
27.76637,2.96163,-0.92745,-7.29408
27.77641,2.69722,-1.19845,-7.48532
27.78644,2.48877,-1.38729,-7.46871
27.79648,2.36637,-1.54995,-7.42397
27.80651,2.13892,-1.77171,-7.34885
27.81655,1.77859,-1.87705,-7.26535
27.82659,1.47857,-1.91671,-7.26984
27.83662,1.27626,-1.87077,-7.32072
27.84666,1.15805,-1.82588,-7.36845
27.8567,1.08517,-1.89052,-7.4925
27.86673,0.94825,-1.85461,-7.65696
27.87677,0.87074,-1.59424,-7.97673
27.88681,0.87733,-1.20922,-8.42535
27.89684,1.07335,-0.82181,-9.09333
27.90688,1.20503,-0.46462,-9.6823
27.91692,1.35587,-0.123,-10.19915
27.92695,1.444,0.10026,-10.62307
27.93699,1.32579,0.11657,-10.86324
27.94703,1.02547,0.02484,-10.92938
27.95706,0.73143,-0.145,-10.9837
27.9671,0.50802,-0.27683,-10.87716
27.97714,0.53705,-0.36167,-10.72812
27.98717,0.67277,-0.3916,-10.41672
27.99721,0.91743,-0.36661,-10.08318
28.00725,1.11061,-0.45834,-9.79872
28.01728,1.21925,-0.59391,-9.54433
28.02732,1.27372,-0.63401,-9.38437
28.03736,1.27716,-0.5984,-9.37315
28.04739,1.29033,-0.64254,-9.52668
28.05743,1.31472,-0.69731,-9.55705
28.06747,1.35751,-0.66559,-9.63502
28.0775,1.31681,-0.63731,-9.62843
28.08754,1.35826,-0.64763,-9.4951
28.09758,1.41871,-0.62923,-9.43974
28.10761,1.47588,-0.63955,-9.56813
28.11765,1.53992,-0.67068,-9.65178
28.12769,1.58646,-0.66529,-9.63277
28.13772,1.55294,-0.65885,-9.49061
28.14776,1.57957,-0.66334,-9.36686
28.1578,1.61639,-0.63267,-9.29279
28.16783,1.71185,-0.55755,-9.46877
28.17787,1.83067,-0.50742,-9.50363
28.18791,1.85162,-0.60199,-9.42522
28.19794,1.74672,-0.66035,-9.46607
28.20798,1.64033,-0.66544,-9.66809
28.21802,1.54935,-0.60498,-9.76804
28.22805,1.62402,-0.52029,-9.69712
28.23809,1.68612,-0.52837,-9.48403
28.24813,1.66352,-0.58224,-9.41011
28.25817,1.67998,-0.67546,-9.53102
28.2682,1.68193,-0.71736,-9.65148
28.27824,1.63045,-0.6406,-9.71791
28.28827,1.71081,-0.58613,-9.71133
28.29831,1.74343,-0.61277,-9.4568
28.30835,1.70093,-0.6391,-9.23758
28.31839,1.67011,-0.69432,-9.41146
28.32842,1.55833,-0.70734,-9.63083
28.33846,1.5697,-0.65945,-9.81563
28.3485,1.65813,-0.60109,-9.80889
28.35853,1.59798,-0.52253,-9.66824
28.36857,1.58227,-0.58658,-9.65821
28.3786,1.60007,-0.76151,-9.67751
28.38864,1.56835,-0.7621,-9.56858
28.39868,1.55668,-0.70629,-9.46607
28.40872,1.55219,-0.67217,-9.50767
28.41875,1.64422,-0.53929,-9.59207
28.42879,1.88154,-0.43021,-9.68215
28.43883,2.07458,-0.3105,-9.61212
28.44886,2.17573,-0.21144,-9.52309
28.4589,2.16945,-0.15173,-9.46308
28.46894,2.08894,-0.11657,-9.4366
28.47897,1.84728,-0.23433,-9.50558
28.48901,1.59364,-0.41031,-9.47924
28.49905,1.35153,-0.53406,-9.44872
28.50908,1.27701,-0.61052,-9.44632
28.51912,1.27506,-0.69537,-9.50693
28.52916,1.25621,-0.67157,-9.64474
28.53919,1.29945,-0.56593,-9.76146
28.54923,1.41827,-0.54767,-9.62903
28.55927,1.32803,-0.56922,-9.31554
28.5693,1.20443,-0.61097,-9.30791
28.57934,1.17391,-0.70524,-9.58728
28.58938,1.14607,-0.79293,-9.76296
28.59941,1.16059,-0.72514,-9.9117
28.60945,1.2378,-0.5773,-9.9509
28.61949,1.35287,-0.47899,-9.83807
28.62952,1.42216,-0.42452,-9.73004
28.63956,1.38116,-0.4733,-9.77553
28.6496,1.28374,-0.58478,-9.91454
28.65963,1.2369,-0.54408,-10.05056
28.66967,1.32744,-0.44547,-10.15246
28.67971,1.47647,-0.42093,-10.17491
28.68974,1.54127,-0.42243,-10.05939
28.69978,1.50745,-0.40297,-9.80695
28.70982,1.48321,-0.43859,-9.78256
28.71985,1.4844,-0.4971,-9.80964
28.72989,1.55773,-0.53106,-9.74365
28.73993,1.63793,-0.53002,-9.67512
28.74996,1.60112,-0.52328,-9.60195
28.76,1.55339,-0.45639,-9.60958
28.77004,1.57254,-0.43245,-9.64025
28.78007,1.56611,-0.49126,-9.57037
28.79011,1.57793,-0.49695,-9.59506
28.80015,1.58481,-0.51311,-9.62948
28.81018,1.58047,-0.55231,-9.66898
28.82022,1.61474,-0.50144,-9.57875
28.83026,1.59439,-0.39998,-9.31479
28.84029,1.60905,-0.39205,-9.351
28.85033,1.63449,-0.39385,-9.43689
28.86036,1.67863,-0.38666,-9.54972
28.8704,1.68013,-0.33609,-9.67602
28.88044,1.62566,-0.27743,-9.78765
28.89048,1.64482,-0.34895,-9.84795
28.90051,1.63823,-0.3937,-9.54284
28.91055,1.59633,-0.4127,-9.2497
28.92059,1.5706,-0.48587,-9.3305
28.93062,1.52286,-0.48064,-9.4158
28.94066,1.55758,-0.4317,-9.61826
28.9507,1.60022,-0.4145,-9.69592
28.96073,1.52346,-0.45056,-9.58997
28.97077,1.45672,-0.44457,-9.60673
28.98081,1.39911,-0.48198,-9.6416
28.99084,1.43951,-0.51969,-9.67602
29.00088,1.5284,-0.4953,-9.63861
29.01092,1.5471,-0.41779,-9.49645
29.02095,1.58661,-0.39519,-9.51097
29.03099,1.59514,-0.41135,-9.54314
29.04103,1.63314,-0.49261,-9.68739
29.05106,1.64871,-0.4959,-9.7245
29.0611,1.63554,-0.42018,-9.64429
29.07114,1.63225,-0.42467,-9.73348
29.08117,1.63404,-0.38936,-9.75039
29.09121,1.63285,-0.42961,-9.76206
29.10125,1.58795,-0.48767,-9.6829
29.11128,1.55533,-0.45071,-9.57576
29.12132,1.60367,-0.41315,-9.62963
29.13136,1.64347,-0.36482,-9.73961
29.14139,1.62821,-0.40043,-9.87249
29.15143,1.60875,-0.42093,-9.92382
29.16147,1.62521,-0.41824,-9.82745
29.1715,1.62387,-0.37769,-9.61766
29.18154,1.64661,-0.33504,-9.6003
29.19158,1.71649,-0.30272,-9.69637
29.20161,1.76557,-0.25917,-9.80515
29.21165,1.82289,-0.30047,-9.88491
29.22169,1.81855,-0.37724,-9.78181
29.23172,1.77231,-0.34506,-9.52518
29.24176,1.74148,-0.31633,-9.34158
29.2518,1.76602,-0.33594,-9.28651
29.26183,1.81914,-0.3096,-9.40457
29.27187,1.87122,-0.26291,-9.47221
29.28191,1.89007,-0.26231,-9.41235
29.29194,1.86688,-0.24002,-9.31374
29.30198,1.80029,-0.3114,-9.31374
29.31202,1.73654,-0.36272,-9.21184
29.32205,1.72876,-0.37813,-9.08585
29.33209,1.74911,-0.34312,-8.96254
29.34213,1.73325,-0.35644,-8.82428
29.35216,1.70557,-0.42258,-8.68841
29.3622,1.62102,-0.52643,-8.58486
29.37224,1.54052,-0.52164,-8.53279
29.38227,1.53603,-0.31199,-8.50809
29.39231,1.73939,-0.11118,-8.52755
29.40235,2.01412,0.09532,-8.74856
29.41238,2.17962,0.23358,-9.03482
29.42242,2.27509,0.24077,-9.3299
29.43246,2.15807,0.16939,-9.52668
29.44249,1.91641,0.06135,-9.67033
29.45253,1.6092,-0.0823,-9.74545
29.46257,1.38549,-0.2481,-9.71672
29.4726,1.29272,-0.31588,-9.79214
29.48264,1.35302,-0.29778,-9.92202
29.49268,1.45313,-0.32621,-10.06911
29.50271,1.50954,-0.33668,-10.23641
29.51275,1.49742,-0.27144,-10.25796
29.52279,1.41497,-0.25528,-10.30225
29.53282,1.29586,-0.31319,-10.34744
29.54286,1.15146,-0.36257,-10.32694
29.5529,1.00542,-0.40686,-10.32784
29.56293,0.87792,-0.49784,-10.28714
29.57297,0.81657,-0.56578,-10.3039
29.58301,0.81163,-0.54992,-10.35762
29.59304,0.82525,-0.45146,-10.3449
29.60308,0.90351,-0.33713,-10.32619
29.61312,0.97115,-0.2683,-10.31796
29.62315,0.94885,-0.27339,-10.26723
29.63319,0.85757,-0.32037,-10.21845
29.64323,0.80744,-0.41629,-10.17266
29.65326,0.81148,-0.47899,-9.98621
29.6633,0.87897,-0.44966,-9.79109
29.67334,1.01499,-0.38202,-9.7052
29.68337,1.17196,-0.29538,-9.69801
29.69341,1.33746,-0.18869,-9.74216
29.70345,1.41512,-0.17014,-9.73378
29.71348,1.44116,-0.15278,-9.62379
29.72352,1.53334,-0.09457,-9.50887
29.73355,1.63494,-0.04938,-9.3953
29.74359,1.79805,0.03068,-9.37599
29.75363,1.87825,0.16655,-9.35968
29.76367,1.9001,0.23613,-9.36043
29.7737,1.90399,0.24361,-9.34577
29.78374,1.83261,0.19588,-9.28202
29.79377,1.69375,0.19213,-9.19463
29.80381,1.46316,0.12644,-9.13972
29.81385,1.2586,0.01721,-9.17338
29.82388,1.11166,-0.03651,-9.24237
29.83392,0.97953,-0.03307,-9.25583
29.84396,0.85697,-0.05806,-9.21124
29.85399,0.64688,-0.10714,-9.17832
29.86403,0.34462,-0.15263,-9.19344
29.87407,0.03127,-0.15757,-9.32078
29.8841,-0.29987,-0.14605,-9.44662
29.89414,-0.60274,-0.13856,-9.5991
29.90418,-0.9297,-0.10669,-9.745
29.91421,-1.33417,-0.06644,-9.8261
29.92425,-1.7774,-0.02858,-9.84571
29.93429,-2.30966,-0.08589,-9.83418
29.94432,-2.83803,-0.15667,-9.84271
29.95436,-3.3462,-0.20949,-9.81473
29.9644,-3.80513,-0.19932,-9.92935
29.97443,-4.17145,-0.15622,-10.10413
29.98447,-4.36478,-0.11223,-10.31572
29.99451,-4.45591,-0.04669,-10.51997
30.00454,-4.40264,0.18166,-10.64253
30.01458,-4.30941,0.49006,-10.87372
30.02462,-4.26916,0.63686,-11.27669
30.03465,-4.21873,0.7232,-11.71902
30.04469,-4.05862,0.95708,-12.19397
30.05473,-3.79092,1.10866,-12.58452
30.06476,-3.55733,1.14188,-12.84624
30.0748,-3.51424,1.13889,-13.17993
30.08484,-3.56811,1.05465,-13.48773
30.09487,-3.77985,0.927,-13.86243
30.10491,-4.03947,0.85204,-14.56423
30.11495,-4.27649,0.83752,-15.442
30.12498,-4.19719,0.76779,-16.40372
30.13502,-3.93412,0.77153,-17.26953
30.14506,-3.60178,0.93179,-18.04465
30.15509,-3.24908,0.94017,-18.8271
30.16513,-2.82486,0.98357,-19.6139
30.17517,-2.33569,0.97249,-20.54958
30.1852,-1.78159,1.28898,-21.23836
30.19524,-1.10537,1.56431,-21.46716
30.20528,-0.39385,1.72008,-21.43574
30.21531,0.38891,1.71305,-21.32665
30.22535,1.16164,1.76034,-21.16594
30.23539,1.93347,1.67759,-20.87909
30.24542,2.46708,1.2791,-20.54255
30.25546,2.73208,0.93583,-20.51382
30.2655,2.67343,0.91863,-20.59388
30.27553,2.71069,1.29437,-20.26572
30.28557,3.20569,1.93257,-19.30654
30.29561,4.20751,2.53935,-18.00604
30.30564,5.45758,3.08194,-16.8468
30.31568,6.80851,3.50541,-15.68576
30.32572,8.06562,3.74483,-14.42222
30.33576,9.01941,3.7761,-12.99243
30.34579,9.89135,3.74708,-11.20217
30.35583,10.72109,3.7592,-8.91287
30.36586,11.49726,3.95552,-6.68491
30.3759,12.07441,4.30762,-5.33653
30.38594,12.49863,4.36373,-4.92906
30.39597,12.54187,4.07673,-5.28325
30.40601,12.2622,3.73271,-5.72603
30.41605,11.9731,3.42027,-5.52492
30.42608,11.81179,3.16184,-4.71224
30.43612,11.62175,2.95759,-3.78718
30.44616,11.25155,2.64455,-3.15765
30.45619,10.72602,2.16166,-2.50389
30.46623,10.19137,1.53588,-2.01053
30.47627,9.48777,0.95244,-1.75974
30.4863,8.81036,0.52044,-1.94379
30.49634,8.22573,0.12465,-2.51765
30.50638,7.8235,0.0015,-2.81304
30.51642,7.47275,-0.12255,-2.42682
30.52645,6.86373,-0.5788,-1.95367
30.53649,6.02217,-1.03085,-1.89785
30.54652,5.16848,-1.16283,-1.85356
30.55656,4.28697,-1.1555,-1.90803
30.5666,3.4487,-1.33357,-2.1244
30.57663,2.83638,-1.507,-2.17423
30.58667,2.34318,-1.526,-2.13578
30.59671,1.86299,-1.54875,-2.3725
30.60674,1.33492,-1.82782,-2.75288
30.61678,0.89004,-2.28137,-2.81783
30.62682,0.60813,-2.50344,-2.78401
30.63685,0.16236,-2.29709,-2.84431
30.64689,-0.30825,-1.93317,-2.79837
30.65693,-0.95633,-1.98809,-2.88157
30.66696,-1.73774,-2.34138,-3.24235
30.677,-2.09627,-2.81364,-3.43807
30.68704,-1.74567,-3.23038,-3.10663
30.69707,-1.18483,-3.00667,-2.58963
30.70711,-0.89004,-2.30636,-2.14954
30.71715,-1.00796,-1.88364,-2.11198
30.72718,-1.39762,-1.98449,-2.63841
30.73722,-1.83545,-2.23708,-3.14359
30.74726,-1.96354,-2.30262,-3.16932
30.75729,-1.82737,-2.20282,-2.74914
30.76733,-1.81032,-1.95741,-2.42054
30.77737,-2.02609,-1.66038,-2.68106
30.7874,-2.43026,-1.35287,-3.56362
30.79744,-3.01879,-1.20578,-4.51846
30.80748,-3.62332,-1.37816,-4.7896
30.81751,-4.1484,-1.46929,-4.53552
30.82755,-4.7073,-1.36215,-4.38827
30.83759,-5.1185,-0.99509,-4.01014
30.84762,-5.28715,-0.66933,-3.89926
30.85766,-5.50292,-0.42033,-4.71912
30.8677,-5.72394,-0.17478,-6.1311
30.87773,-6.03369,-0.05267,-7.25937
30.88777,-6.49173,-0.04384,-7.69661
30.89781,-7.02638,-0.01407,-7.25997
30.90784,-7.658,0.34641,-6.68147
30.91788,-8.4837,0.7226,-6.98673
30.92792,-9.34816,0.76674,-7.98062
30.93795,-9.95494,0.77348,-9.02614
30.94799,-10.09201,0.67337,-9.56065
30.95803,-9.87638,0.58389,-9.51291
30.96806,-9.67347,0.22895,-9.16231
30.9781,-9.96721,-0.26172,-8.64576
30.98814,-10.65016,-0.42587,-8.63948
30.99817,-11.07782,-0.80999,-9.12715
31.00821,-11.1881,-1.29167,-9.73692
31.01825,-11.0446,-1.35916,-10.2825
31.02828,-10.73874,-1.32788,-10.76702
31.03832,-10.50651,-1.3421,-11.07288
31.04836,-10.20349,-0.8462,-11.20801
31.05839,-9.58384,-0.23343,-11.7473
31.06843,-9.19014,0.05177,-12.74808
31.07847,-9.168,-0.0422,-13.84327
31.0885,-9.45665,-0.57745,-14.73137
31.09854,-9.67198,-1.30634,-15.14886
31.10858,-9.58968,-1.76378,-15.04816
31.11861,-8.94683,-1.62671,-15.06746
31.12865,-8.02282,-1.02741,-15.34534
31.13869,-6.91266,-0.48887,-15.54854
31.14872,-5.66034,-0.40746,-16.03247
31.15876,-4.47027,-0.35075,-17.11286
31.1688,-3.35532,0.05626,-17.8805
31.17883,-2.06006,0.95559,-18.09523
31.18887,-0.52687,2.15478,-18.02639
31.19891,1.17151,3.31118,-17.64586
31.20894,2.94696,4.0052,-17.33073
31.21898,4.32961,4.02091,-17.37173
31.22902,5.16983,3.52621,-17.25277
31.23905,5.68758,2.76605,-16.76809
31.24909,6.04311,2.30023,-16.37873
31.25913,6.36558,2.23618,-16.43096
31.26916,6.47901,2.35724,-16.19049
31.2792,6.39342,2.19144,-15.50605
31.28924,6.34,1.74537,-14.94266
31.29927,6.08097,1.44909,-14.50213
31.30931,5.53884,1.116,-14.03242
31.31935,4.79783,0.6617,-13.56974
31.32938,4.0257,0.34327,-13.0282
31.33942,3.16603,0.02529,-12.53095
31.34946,2.12665,-0.38472,-12.0988
31.35949,1.35691,-0.87358,-11.67802
31.36953,0.83528,-1.239,-11.27444
31.37957,0.48617,-1.43069,-10.78333
31.3896,0.35718,-1.53334,-10.07914
31.39964,0.25932,-1.51733,-9.48044
31.40968,0.25513,-1.51747,-9.11727
31.41971,0.42332,-1.4871,-8.85032
31.42975,0.76151,-1.28943,-8.59339
31.43979,1.12677,-1.00137,-8.19026
31.44982,1.41018,-0.86266,-7.76993
31.45986,1.58077,-0.91309,-7.41739
31.4699,1.69016,-0.94676,-7.26925
31.47993,1.84743,-0.78141,-7.22645
31.48997,2.13683,-0.58119,-7.17647
31.50001,2.40752,-0.42452,-7.22869
31.51004,2.5383,-0.30945,-7.48158
31.52008,2.37011,-0.2068,-7.8443
31.53011,2.02295,-0.25932,-8.14448
31.54015,1.76722,-0.41315,-8.46799
31.55019,1.52989,-0.47345,-8.83206
31.56023,1.31561,-0.48049,-9.0206
31.57026,1.09625,-0.50383,-9.07642
31.5803,0.93239,-0.4944,-9.06101
31.59034,0.82001,-0.4971,-9.1858
31.60037,0.60693,-0.5384,-9.40457
31.61041,0.28895,-0.69327,-9.4155
31.62045,0.11612,-0.87343,-9.43271
31.63048,0.08739,-0.97848,-9.35789
31.64052,0.17358,-0.98791,-9.24102
31.65056,0.28356,-0.92072,-9.16156
31.66059,0.28431,-0.97339,-9.09602
31.67063,0.13976,-1.08951,-9.02509
31.68067,-0.05671,-1.25651,-8.91451
31.6907,-0.34536,-1.4657,-8.61598
31.70074,-0.60543,-1.67923,-8.25296
31.71078,-0.64853,-1.82318,-8.0107
31.72081,-0.48363,-1.84907,-7.94112
31.73085,-0.25573,-1.5706,-8.13191
31.74089,-0.13318,-1.30574,-8.6308
31.75092,-0.08784,-1.21895,-9.23474
31.76096,-0.022,-1.11241,-9.77912
31.771,0.18735,-0.86535,-10.25003
31.78103,0.50323,-0.61561,-10.47748
31.79107,0.71048,-0.46298,-10.62517
31.80111,0.8257,-0.32202,-10.817
31.81114,0.8257,-0.32202,-10.817
31.82181,0.88705,-0.2472,-11.23734
31.83184,0.89648,-0.26306,-11.35181
31.84188,0.97968,-0.37813,-11.44862
31.85192,1.0925,-0.3711,-11.42947
31.86195,1.2194,-0.35718,-11.31305
31.87199,1.27776,-0.3699,-11.03473
31.88203,1.18887,-0.47211,-10.71839
31.89206,1.08083,-0.60843,-10.54212
31.9021,1.01005,-0.70988,-10.39263
31.91214,0.81927,-0.78934,-10.20469
31.92217,0.74235,-0.88107,-10.02392
31.93221,0.77587,-0.9086,-9.7875
31.94225,0.72664,-0.91279,-9.72181
31.95228,0.64703,-0.92012,-9.81368
31.96232,0.67232,-0.86745,-9.9295
31.97235,0.65511,-0.82316,-9.82146
31.98239,0.56174,-0.87284,-9.78121
31.99243,0.47121,-0.89887,-9.65192
32.00247,0.37394,-0.92087,-9.34247
32.0125,0.22625,-0.97115,-9.2063
32.02254,0.15981,-0.95603,-9.24611
32.03258,0.19303,-0.97205,-9.2708
32.04261,0.27249,-1.03968,-9.40981
32.05265,0.31379,-1.00212,-9.4966
32.06269,0.33863,-1.02217,-9.38437
32.07272,0.31035,-1.0723,-9.28935
32.08276,0.27069,-1.08697,-9.28831
32.0928,0.20022,-1.11181,-8.99053
32.10283,0.2267,-1.11031,-8.82637
32.11287,0.23269,-1.07769,-8.83715
32.12291,0.27848,-0.97654,-9.02315
32.13294,0.41689,-0.82989,-9.31419
32.14298,0.50293,-0.72365,-9.50244
32.15301,0.50308,-0.65646,-9.63262
32.16305,0.47181,-0.59406,-9.69487
32.17309,0.46433,-0.58972,-9.79408
32.18312,0.43964,-0.6177,-9.94073
32.19316,0.42722,-0.62055,-10.04308
32.2032,0.43934,-0.56787,-10.13451
32.21323,0.65811,-0.4326,-10.30345
32.22327,0.93913,-0.29718,-10.18419
32.23331,1.02262,-0.28012,-9.96257
32.24334,1.01185,-0.37604,-9.972
32.25338,0.93688,-0.48094,-9.90362
32.26342,0.84785,-0.61785,-9.85603
32.27345,0.79069,-0.65856,-9.78735
32.28349,0.80191,-0.67277,-9.74365
32.29353,0.87149,-0.63536,-9.78495
32.30356,0.87269,-0.58179,-9.6223
32.3136,0.78829,-0.63985,-9.55032
32.32364,0.681,-0.69477,-9.77882
32.33367,0.61247,-0.71691,-9.89718
32.34371,0.62982,-0.71033,-9.9295
32.35375,0.6831,-0.68115,-9.92037
32.36378,0.63177,-0.63446,-9.78376
32.37382,0.59346,-0.63102,-9.82251
32.38386,0.56413,-0.67906,-10.01674
32.39452,0.56623,-0.67142,-10.08333
32.40456,0.60693,-0.73352,-9.95285
32.41459,0.58568,-0.75103,-9.8466
32.42463,0.52523,-0.73711,-9.75443
32.43467,0.45714,-0.76166,-9.67198
32.4447,0.42018,-0.77183,-9.69352
32.45474,0.37948,-0.79892,-9.7652
32.46478,0.3711,-0.81612,-9.77672
32.47481,0.41794,-0.807,-9.71432
32.48485,0.52343,-0.74265,-9.74635
32.49489,0.5589,-0.68908,-9.82969
32.50492,0.59406,-0.65781,-9.91304
32.51496,0.67906,-0.6204,-9.9301
32.525,0.74894,-0.59331,-9.91738
32.53503,0.77198,-0.56473,-9.7245
32.54507,0.77422,-0.57281,-9.70505
32.55511,0.72365,-0.58209,-9.8484
32.56514,0.67262,-0.62384,-9.95868
32.57518,0.73023,-0.67741,-9.93085
32.58522,0.73592,-0.68504,-9.72345
32.59525,0.67561,-0.68968,-9.50333
32.60529,0.64554,-0.70973,-9.51321
32.61533,0.62339,-0.69252,-9.57815
32.62536,0.62623,-0.67202,-9.7049
32.6354,0.69282,-0.71542,-9.89793
32.64544,0.67083,-0.7425,-9.7869
32.65547,0.58149,-0.72859,-9.48732
32.66551,0.57775,-0.75028,-9.41206
32.67555,0.58852,-0.77976,-9.4363
32.68558,0.62115,-0.76345,-9.59626
32.69562,0.71407,-0.73637,-9.79588
32.70566,0.74789,-0.68504,-9.72016
32.71569,0.72933,-0.68699,-9.58384
32.72573,0.73667,-0.70928,-9.57157
32.73577,0.71856,-0.68205,-9.59626
32.7458,0.78799,-0.69028,-9.72779
32.75584,0.8049,-0.70135,-9.7872
32.76588,0.77961,-0.67127,-9.61945
32.77591,0.85503,-0.63252,-9.64504
32.78595,0.84755,-0.61351,-9.71732
32.79599,0.80655,-0.60962,-9.77388
32.80602,0.78829,-0.61711,-9.83792
32.81606,0.78739,-0.64599,-9.80007
32.8261,0.81119,-0.62474,-9.70116
32.83613,0.80505,-0.57087,-9.62843
32.84617,0.78784,-0.57296,-9.71402
32.85621,0.71826,-0.63416,-9.77358
32.86624,0.64883,-0.70868,-9.85229
32.87628,0.63476,-0.73113,-9.78166
32.88632,0.69267,-0.71751,-9.62424
32.89635,0.74609,-0.71362,-9.55541
32.90639,0.75223,-0.71108,-9.49735
32.91643,0.74684,-0.7244,-9.58369
32.92646,0.78844,-0.69941,-9.723
32.9365,0.81343,-0.65137,-9.72555
32.94654,0.81014,-0.62938,-9.65686
32.95657,0.82196,-0.61336,-9.71732
32.96661,0.85114,-0.55486,-9.84152
32.97665,0.81014,-0.6207,-9.83224
32.98668,0.73113,-0.70794,-9.8891
32.99672,0.75881,-0.67487,-9.87414
33.00676,0.79368,-0.61815,-9.53072
33.01679,0.85742,-0.61022,-9.46353
33.02683,0.86161,-0.59316,-9.6609
33.03687,0.83902,-0.57266,-9.88596
33.0469,0.84411,-0.63761,-10.02063
33.05694,0.84605,-0.72874,-9.99055
33.06698,0.78904,-0.6626,-9.81847
33.07701,0.79143,-0.63027,-9.58728
33.08705,0.80116,-0.68025,-9.51082
33.09709,0.79024,-0.68205,-9.59596
33.10712,0.84665,-0.67127,-9.76041
33.11716,0.8483,-0.67397,-9.8496
33.1272,0.80789,-0.6602,-9.82131
33.13723,0.79697,-0.6382,-9.79124
33.14727,0.79981,-0.64135,-9.73901
33.15731,0.84126,-0.65077,-9.7257
33.16734,0.85907,-0.61546,-9.70086
33.17738,0.83438,-0.6406,-9.70759
33.18742,0.76225,-0.70809,-9.619
33.19745,0.68714,-0.77707,-9.59835
33.20749,0.65661,-0.8242,-9.65626
33.21753,0.67861,-0.81134,-9.59925
33.22756,0.78036,-0.71796,-9.59716
33.2376,0.92012,-0.60588,-9.66524
33.24764,0.96771,-0.53017,-9.69382
33.25767,0.9502,-0.52463,-9.72495
33.26771,0.90725,-0.55067,-9.70564
33.27775,0.85278,-0.58882,-9.63472
33.28778,0.83019,-0.63162,-9.60239
33.29782,0.9095,-0.62189,-9.65372
33.30786,1.02861,-0.5565,-9.71926
33.31789,1.14533,-0.53929,-9.71911
33.32793,1.15864,-0.51281,-9.65761
33.33797,1.08981,-0.53151,-9.63217
33.348,0.9906,-0.61546,-9.6401
33.35804,0.95978,-0.68504,-9.67287
33.36808,1.00901,-0.69207,-9.71238
33.37811,1.08008,-0.65721,-9.64175
33.38815,1.18573,-0.62878,-9.63127
33.39819,1.24768,-0.58419,-9.67512
33.40822,1.27925,-0.48782,-9.67272
33.41826,1.28958,-0.47839,-9.72944
33.4283,1.23646,-0.50622,-9.84196
33.43833,1.12812,-0.56653,-9.91035
33.44837,1.01858,-0.62638,-9.92771
33.45841,0.90606,-0.65302,-9.84645
33.46844,0.79757,-0.65466,-9.75562
33.47848,0.74609,-0.65257,-9.77343
33.48852,0.71003,-0.61187,-9.87833
33.49855,0.73203,-0.57985,-9.97724
33.50859,0.71602,-0.58538,-9.95255
33.51863,0.61022,-0.60469,-9.82775
33.52866,0.46029,-0.64404,-9.72016
33.5387,0.28641,-0.69477,-9.65746
33.54874,0.15817,-0.76719,-9.64145
33.55877,0.04459,-0.74759,-9.53192
33.56881,-0.00703,-0.69462,-9.49929
33.57885,-0.05162,-0.63895,-9.48687
33.58888,-0.16685,-0.60977,-9.51082
33.59892,-0.38861,-0.65885,-9.61048
33.60896,-0.70434,-0.74355,-9.64968
33.61899,-0.96397,-0.81957,-9.7016
33.62903,-1.17705,-0.81642,-9.72839
33.63907,-1.37637,-0.75851,-9.79722
33.6491,-1.60786,-0.73592,-10.06537
33.65914,-1.93751,-0.82914,-10.34609
33.66918,-2.56135,-0.90995,-10.61065
33.67921,-3.4056,-1.06901,-10.99073
33.68925,-4.35056,-1.26354,-11.6246
33.69929,-5.61844,-1.40435,-12.88485
33.70932,-6.82737,-1.82468,-14.48028
33.71936,-6.87241,-2.14491,-15.90184
33.7294,-5.80534,-2.1247,-17.09789
33.73943,-4.60585,-1.31157,-18.06141
33.74947,-3.63874,-0.67546,-19.05366
33.75951,-3.00023,-0.65706,-19.49853
33.76954,-2.82516,-0.84605,-19.45483
33.77958,-2.73553,-1.10238,-19.02478
33.78962,-2.54563,-1.47902,-18.47426
33.79965,-2.03836,-1.58466,-18.12635
33.80969,-1.16253,-1.36529,-17.98973
33.81973,-0.06838,-0.8471,-18.34288
33.82976,0.97713,-0.32726,-18.68435
33.8398,2.04989,0.07302,-18.83937
33.84984,3.23561,0.64823,-18.54204
33.85987,4.49885,1.24199,-17.71305
33.86991,5.71466,1.34225,-16.67337
33.87995,6.74806,1.38265,-15.81909
33.88998,7.61162,1.55324,-15.09305
33.90002,8.4843,1.74717,-14.10215
33.91005,9.49795,1.91761,-12.91148
33.92009,10.43169,2.169,-11.7283
33.93013,11.15309,2.35066,-10.86938
33.94016,11.69972,2.13039,-10.26484
33.9502,12.0985,1.81391,-9.40817
33.96024,12.52377,1.59618,-8.42101
33.97027,12.76484,1.37502,-7.26835
33.98031,12.86419,1.17451,-6.24513
33.99035,12.77142,1.00751,-5.54003
34.00038,12.51195,0.54797,-4.9361
34.01042,12.01081,-0.15323,-4.61228
34.02046,11.41196,-0.71168,-4.72181
34.03049,10.8598,-0.91653,-4.63577
34.04053,10.1993,-0.72619,-3.97737
34.05057,9.45231,-0.50263,-3.39947
34.0606,8.63678,-0.57356,-2.63168
34.07064,7.87303,-0.8269,-1.5908
34.08068,7.22136,-0.98028,-0.89693
34.09071,6.67204,-0.99599,-0.48707
34.10075,6.19156,-0.8456,-0.52463
34.11079,5.80863,-0.6587,-0.7642
34.12082,5.61425,-0.7449,-0.87792
34.13086,5.36615,-0.85503,-1.06033
34.1409,5.21906,-0.81627,-1.10178
34.15093,5.18,-0.6382,-0.89917
34.16097,5.23313,-0.58493,-0.30092
34.17101,5.22026,-0.61651,0.19558
34.18104,5.07885,-0.77722,0.33818
34.19108,4.72645,-1.0108,0.16744
34.20112,4.24836,-1.06183,-0.33953
34.21115,3.80229,-1.01454,-0.91743
34.22119,3.38465,-0.92012,-1.2185
34.23123,3.13102,-0.90441,-1.39313
34.24126,2.62764,-1.01918,-1.26938
34.2513,1.8787,-0.89573,-1.16373
34.26134,1.10881,-0.9707,-1.48815
34.27137,0.42123,-1.28868,-1.99317
34.28141,0.02649,-1.51942,-2.63691
34.29145,-0.1667,-1.21311,-2.76441
34.30148,-0.22625,-0.7009,-2.64903
34.31152,-0.70375,-0.558,-3.02627
34.32156,-1.73445,-0.73337,-3.42386
34.33159,-2.70889,-1.03325,-3.57065
34.34163,-3.44301,-1.39432,-3.53264
34.35167,-3.88684,-1.68746,-3.53609
34.3617,-4.0655,-1.75106,-3.45453
34.37174,-4.12596,-1.76752,-3.20748
34.38178,-4.38678,-2.00604,-3.17336
34.39181,-4.94672,-2.30427,-3.79481
34.40185,-5.65421,-2.53307,-4.60584
34.41189,-6.31097,-2.72041,-4.87893
34.42192,-6.61638,-2.81423,-4.57038
34.43196,-6.64915,-2.8072,-4.07044
34.442,-6.54216,-2.68914,-3.45932
34.45203,-6.6481,-2.65831,-3.45304
34.46207,-7.04883,-2.74286,-4.15633
34.47211,-7.45659,-2.8473,-5.01136
34.48214,-7.85014,-2.94711,-5.70164
34.49218,-8.23471,-2.87648,-6.18766
34.50222,-8.44435,-2.58394,-6.50894
34.51225,-8.58276,-2.28826,-6.75569
34.52229,-8.80647,-2.10735,-7.09507
34.53233,-9.18521,-2.22526,-7.7219
34.54236,-9.78226,-2.59906,-8.65609
34.5524,-10.33427,-2.77144,-9.62529
34.56244,-10.57175,-2.56554,-10.6735
34.57247,-10.6756,-2.39615,-11.51701
34.58251,-10.91816,-2.1663,-11.88407
34.59255,-11.09234,-2.08759,-11.95844
34.60258,-11.01482,-2.30996,-12.16703
34.61262,-10.72423,-2.19758,-12.62911
34.62266,-10.34983,-1.88528,-13.39272
34.63269,-9.92097,-1.47632,-13.98483
34.64273,-9.39051,-0.94212,-14.59236
34.65277,-8.81336,-0.28895,-14.71551
34.6628,-7.96581,0.65077,-14.3905
34.67284,-6.8145,1.18693,-14.19432
34.68288,-5.86385,1.32145,-14.29922
34.69291,-4.86487,1.68327,-14.5979
34.70295,-3.7387,1.78682,-14.85108
34.71299,-2.78146,2.00125,-14.93653
34.72302,-1.72906,2.60654,-14.93084
34.73306,-0.67606,3.21661,-15.0076
34.7431,0.43934,3.43837,-15.29431
34.75313,1.57269,3.48955,-15.64461
34.76317,2.83488,3.97437,-16.32501
34.77321,4.29565,4.95151,-16.86999
34.78324,6.04581,5.98251,-17.09265
34.79328,7.85283,6.545,-17.03145
34.80332,9.65222,6.79459,-16.76195
34.81335,11.25694,6.86911,-16.36347
34.82339,12.56267,6.53602,-15.82298
34.83343,13.40648,5.99074,-15.01494
34.84346,13.91959,5.5954,-14.04319
34.8535,14.14464,5.20499,-13.0879
