t,ax,ay,az
0.0,0.18121,-3.82115,-8.84628
0.01004,-0.06749,-3.88115,-9.5801
0.02008,-0.31873,-3.84224,-10.07719
0.03011,-0.39145,-3.71565,-10.11356
0.04015,-0.29479,-3.53893,-9.81144
0.05019,-0.05761,-3.41623,-9.42582
0.06023,0.20919,-3.31492,-9.07851
0.07026,0.44876,-3.2217,-8.78867
0.0803,0.62474,-3.21362,-8.61972
0.09034,0.61681,-3.42939,-8.50181
0.10038,0.52478,-3.83656,-8.30997
0.11041,0.39444,-4.16382,-8.05514
0.12045,0.34521,-4.26766,-7.85957
0.13049,0.41614,-4.20437,-7.88111
0.14053,0.58029,-4.04381,-8.16572
0.15056,0.68085,-3.88205,-8.59997
0.1606,0.71991,-3.78897,-9.00878
0.17064,0.63012,-3.78778,-9.15722
0.18068,0.53705,-3.81621,-9.09093
0.19071,0.46014,-3.86304,-9.12535
0.20075,0.4112,-3.87157,-9.4146
0.21079,0.42527,-3.80618,-9.808
0.22083,0.46852,-3.71296,-10.04936
0.23086,0.55052,-3.676,-10.13466
0.2409,0.53959,-3.89058,-10.08318
0.25094,0.49934,-4.09513,-9.87833
0.26097,0.52149,-4.13778,-9.56903
0.27101,0.47645,-4.13149,-9.31644
0.28105,0.46866,-4.09872,-9.09452
0.29109,0.5176,-4.07628,-8.94698
0.30113,0.59661,-4.07074,-8.90912
0.31116,0.63761,-4.05817,-9.07836
0.3212,0.60873,-4.00176,-9.24611
0.33124,0.52283,-3.95702,-9.32063
0.34127,0.39355,-3.96809,-9.32437
0.35131,0.28506,-4.04545,-9.19508
0.36135,0.19842,-4.13658,-9.01312
0.37139,0.13827,-4.18402,-8.8973
0.38143,-0.01736,-4.23669,-8.95327
0.39146,-0.17089,-4.26332,-8.94983
0.4015,-0.22491,-4.19165,-8.78642
0.41154,-0.22969,-4.11653,-8.70906
0.42158,-0.29419,-4.07239,-8.95806
0.43161,-0.40462,-4.0251,-9.32975
0.44165,-0.5565,-4.00774,-9.51994
0.45169,-0.64823,-3.99742,-9.37061
0.46173,-0.57745,-3.95343,-9.03048
0.47176,-0.45415,-3.90285,-8.70771
0.4818,-0.3298,-3.89581,-8.39931
0.49184,-0.1866,-3.91257,-8.20179
0.50188,-0.13991,-3.95043,-8.25506
0.51191,-0.17433,-4.09124,-8.45408
0.52195,-0.2053,-4.27006,-8.42355
0.53199,-0.17837,-4.32692,-8.19535
0.54203,-0.11088,-4.39875,-8.12936
0.55206,-0.17074,-4.4806,-8.59593
0.5621,-0.23583,-4.50723,-9.23952
0.57214,-0.24137,-4.39725,-9.45276
0.58218,-0.12195,-4.18447,-9.31255
0.59221,0.00643,-4.00909,-9.07866
0.60225,0.10086,-4.03348,-8.80827
0.61229,0.15637,-4.171,-8.64411
0.62233,0.17478,-4.2937,-8.72791
0.63236,0.11253,-4.32707,-8.90673
0.6424,0.03561,-4.33006,-9.16111
0.65244,0.03906,-4.32617,-9.38617
0.66248,0.11013,-4.25375,-9.50079
0.67251,0.21847,-4.14556,-9.3944
0.68255,0.36916,-4.10366,-9.13927
0.69259,0.39998,-4.15723,-8.97811
0.70263,0.37275,-4.18073,-9.00818
0.71266,0.33145,-4.17534,-9.15214
0.7227,0.34013,-4.17938,-9.1882
0.73274,0.43679,-4.21888,-8.96254
0.74278,0.54558,-4.27185,-8.66222
0.75281,0.60873,-4.36613,-8.42759
0.76285,0.5559,-4.47357,-8.35127
0.77289,0.54782,-4.46414,-8.34963
0.78293,0.56054,-4.41072,-8.34604
0.79296,0.52642,-4.38887,-8.4849
0.803,0.51849,-4.35834,-8.61524
0.81304,0.54348,-4.32991,-8.59967
0.82308,0.57476,-4.32527,-8.51707
0.83311,0.61232,-4.34009,-8.50091
0.84315,0.63476,-4.32602,-8.39287
0.85319,0.64359,-4.31914,-8.21076
0.86323,0.58852,-4.37196,-8.1545
0.87326,0.57027,-4.37451,-8.07609
0.8833,0.66888,-4.38708,-7.77008
0.89334,0.79981,-4.44035,-7.49116
0.90338,0.93718,-4.53118,-7.3918
0.91341,0.95783,-4.58445,-7.54443
0.92345,0.86954,-4.62485,-7.7626
0.93349,0.75402,-4.58175,-7.95593
0.94353,0.67127,-4.55153,-8.22603
0.95356,0.80086,-4.61557,-8.02881
0.9636,1.03025,-4.72451,-7.51226
0.97364,1.05899,-4.69817,-7.62284
0.98368,1.0111,-4.61901,-7.87228
0.99371,0.90501,-4.6051,-8.19356
1.00375,0.87179,-4.63547,-8.45303
1.01379,0.8664,-4.65343,-8.61344
1.02383,0.89992,-4.70131,-8.65773
1.03386,0.93523,-4.7498,-8.70921
1.0439,0.97938,-4.80157,-8.66566
1.05394,1.04537,-4.88746,-8.66342
1.06398,1.13051,-4.92278,-8.75919
1.07401,1.20982,-4.91021,-8.83341
1.08405,1.28733,-4.88612,-8.86214
1.09409,1.36065,-4.88238,-8.84553
1.10413,1.31157,-4.91006,-8.76712
1.11416,1.17181,-4.95675,-8.7104
1.1242,1.00721,-5.0576,-8.76936
1.13424,0.85772,-5.15606,-8.85944
1.14428,0.77841,-5.19183,-9.00968
1.15431,0.7039,-5.21936,-9.28232
1.16435,0.67636,-5.24046,-9.56558
1.17439,0.71018,-5.183,-9.75951
1.18443,0.71392,-5.16564,-9.94073
1.19446,0.70135,-4.98607,-9.82236
1.2045,0.77677,-4.79125,-9.25179
1.21454,1.00826,-4.62844,-8.65339
1.22458,1.12976,-4.5412,-8.44151
1.23461,1.00975,-4.87205,-8.72627
1.24465,1.00975,-4.87205,-8.72627
1.25469,0.84605,-5.00553,-8.88862
1.26473,0.66693,-5.11117,-8.99157
1.27476,0.54543,-5.17387,-9.04051
1.2848,0.62234,-5.08738,-8.79794
1.29484,0.8067,-4.94837,-8.38539
1.30488,1.01783,-4.8514,-8.04497
1.31491,1.10373,-4.86741,-7.93064
1.32495,1.07649,-4.90647,-8.03449
1.33499,1.0319,-4.92323,-8.14612
1.34503,0.97115,-4.88148,-8.30174
1.35506,1.02457,-4.81294,-8.37357
1.3651,1.12168,-4.74082,-8.32404
1.37514,1.22493,-4.71299,-8.20598
1.38518,1.27327,-4.72137,-8.093
1.39521,1.27716,-4.71718,-8.01668
1.40525,1.24932,-4.69413,-8.04616
1.41529,1.17989,-4.65732,-8.13041
1.42533,1.12168,-4.63487,-8.0951
1.43536,1.12752,-4.6446,-7.9694
1.4454,1.21865,-4.6027,-7.88306
1.45544,1.32893,-4.49496,-7.93887
1.46548,1.43054,-4.41132,-7.99185
1.47551,1.51912,-4.35685,-7.95324
1.48555,1.57928,-4.37884,-7.93917
1.49559,1.60082,-4.44214,-7.97793
1.50563,1.5676,-4.47985,-8.06756
1.51566,1.47363,-4.5427,-8.23979
1.5257,1.41901,-4.51816,-8.39003
1.53574,1.41063,-4.45202,-8.52066
1.54578,1.36155,-4.36852,-8.62152
1.55581,1.31681,-4.34682,-8.69125
1.56585,1.29616,-4.36029,-8.73734
1.57589,1.30319,-4.34967,-8.7348
1.58593,1.30289,-4.31166,-8.74138
1.59596,1.33806,-4.24267,-8.76143
1.606,1.36125,-4.21858,-8.793
1.61604,1.39298,-4.2096,-8.76772
1.62608,1.39088,-4.22442,-8.65519
1.63611,1.35736,-4.28158,-8.55867
1.64615,1.29451,-4.33979,-8.57992
1.65619,1.20054,-4.39366,-8.76143
1.66623,1.13784,-4.42209,-8.86094
1.67626,1.10881,-4.4167,-8.81276
1.6863,1.18378,-4.40294,-8.74557
1.69634,1.28763,-4.35969,-8.73091
1.70638,1.30783,-4.3555,-8.79256
1.71641,1.27805,-4.39695,-8.92319
1.72645,1.27476,-4.44109,-8.96763
1.73649,1.25336,-4.43331,-8.9205
1.74653,1.20129,-4.41386,-8.79645
1.75656,1.15475,-4.34652,-8.65609
1.7666,1.12288,-4.34293,-8.5871
1.77664,1.0735,-4.3748,-8.60267
1.78668,0.99748,-4.38722,-8.71893
1.79671,0.91877,-4.32946,-8.98454
1.80675,0.86461,-4.29654,-9.2473
1.81679,0.85039,-4.28906,-9.34173
1.82683,0.80759,-4.30777,-9.32586
1.83686,0.80355,-4.33829,-9.14256
1.8469,0.90486,-4.37032,-8.78941
1.85694,1.04238,-4.33321,-8.52366
1.86698,1.1552,-4.28383,-8.46246
1.87701,1.16253,-4.26781,-8.43537
1.88705,1.11435,-4.30462,-8.41233
1.89709,1.00003,-4.42104,-8.36893
1.90713,0.91683,-4.46653,-8.30953
1.91716,0.9083,-4.46159,-8.31087
1.9272,0.9701,-4.38289,-8.29321
1.93724,1.0524,-4.3365,-8.28379
1.94728,1.09535,-4.31944,-8.39302
1.95731,1.07455,-4.31555,-8.56241
1.96735,0.97863,-4.32423,-8.77191
1.97739,0.86685,-4.34503,-8.94953
1.98743,0.80026,-4.37077,-8.95461
1.99746,0.78485,-4.44334,-8.86363
2.0075,0.744,-4.47626,-8.83266
2.01754,0.66634,-4.51322,-8.85316
2.02758,0.60798,-4.55422,-8.89835
2.03761,0.5773,-4.55228,-8.95237
2.04765,0.55411,-4.51906,-9.02105
2.05769,0.53106,-4.49661,-9.11158
2.06773,0.45684,-4.47611,-9.30626
2.07776,0.40582,-4.46908,-9.38288
2.0878,0.37798,-4.49586,-9.14091
2.09784,0.40327,-4.52519,-8.86259
2.10788,0.35913,-4.57861,-8.69918
2.11791,0.26187,-4.63682,-8.84837
2.12795,0.15502,-4.65807,-9.05442
2.13799,0.15323,-4.60884,-8.95731
2.14803,0.24137,-4.54195,-8.61374
2.15806,0.36108,-4.49945,-8.3595
2.1681,0.50188,-4.4797,-8.20134
2.17814,0.58359,-4.46279,-8.16557
2.18818,0.56623,-4.42269,-8.33107
2.19821,0.52568,-4.35805,-8.55493
2.20825,0.53032,-4.29355,-8.54042
2.21829,0.58538,-4.24806,-8.34933
2.22833,0.64284,-4.2319,-8.21211
2.23836,0.6798,-4.18851,-8.23965
2.2484,0.67367,-4.16337,-8.37851
2.25844,0.71317,-4.10426,-8.45707
2.26848,0.7413,-4.03423,-8.35008
2.27851,0.68998,-4.01433,-8.35921
2.28855,0.52268,-4.11848,-8.6911
2.29859,0.35329,-4.23849,-8.97407
2.30863,0.31813,-4.31016,-9.01447
2.31866,0.33279,-4.3151,-8.99127
2.3287,0.41794,-4.23594,-9.04066
2.33874,0.52104,-4.12536,-9.06879
2.34878,0.58463,-4.09169,-8.99726
2.35881,0.62608,-4.10142,-8.84643
2.36885,0.61815,-4.16008,-8.793
2.37889,0.53316,-4.22906,-8.78477
2.38893,0.43964,-4.28996,-8.81276
2.39896,0.42692,-4.30492,-8.84807
2.409,0.50368,-4.27769,-8.79196
2.41904,0.62578,-4.21903,-8.63948
2.42908,0.72589,-4.15843,-8.51393
2.43911,0.7621,-4.15603,-8.46694
2.44915,0.72065,-4.22337,-8.37312
2.45919,0.6388,-4.37346,-8.47712
2.46923,0.54693,-4.44124,-8.68063
2.47926,0.49934,-4.44409,-8.70891
2.4893,0.50473,-4.40997,-8.55822
2.49934,0.50907,-4.40249,-8.38794
2.50938,0.50877,-4.39545,-8.39183
2.51941,0.45131,-4.51935,-8.61015
2.52945,0.27354,-4.73034,-8.96898
2.53949,0.02005,-4.98114,-9.43435
2.54953,-0.17912,-5.08184,-9.89359
2.55956,-0.2493,-5.10369,-10.07226
2.5696,-0.16744,-5.02857,-9.99983
2.57964,0.07632,-4.94223,-9.7239
2.58968,0.38876,-4.87998,-9.32482
2.59971,0.66604,-4.9147,-8.93965
2.60975,0.72649,-5.06972,-8.67958
2.61979,0.6828,-5.27667,-8.79226
2.62983,0.58359,-5.38905,-9.25539
2.63986,0.54827,-5.34595,-9.54793
2.6499,0.517,-5.34221,-9.6199
2.65994,0.61546,-5.37094,-9.44408
2.66998,0.88675,-5.29553,-9.37809
2.68001,1.0922,-5.3452,-9.49077
2.69005,1.14159,-5.28999,-9.17069
2.70009,1.08098,-5.11312,-8.37118
2.71013,0.9089,-5.13122,-7.66384
2.72016,0.60798,-5.09546,-7.15058
2.7302,0.3916,-5.28849,-7.65471
2.74024,0.60903,-5.60483,-8.47173
2.75028,0.72305,-5.65406,-8.34514
2.76031,0.59406,-5.26679,-7.73402
2.77035,0.3081,-4.90647,-7.10509
2.78039,0.13931,-5.07915,-6.90263
2.79043,-0.0196,-5.22041,-7.06798
2.80046,-0.15547,-4.92757,-7.4331
2.8105,-0.0012,-5.03097,-7.94067
2.82054,0.56698,-5.52851,-7.92571
2.83058,1.36574,-6.10072,-7.49205
2.84061,2.0849,-6.42245,-6.7943
2.85065,2.47156,-6.39297,-5.89901
2.86069,2.21105,-5.65047,-5.49574
2.87073,1.48815,-4.39426,-9.27798
2.88076,0.50039,-3.74408,-8.07205
2.8908,-0.40806,-4.51965,-7.53291
2.90084,-0.3096,-5.67456,-7.35948
2.91088,0.01721,-6.14232,-5.87298
2.92091,0.50338,-4.23953,-6.70556
2.93095,1.14054,-2.43011,-7.48113
2.94099,1.47468,-2.47725,-7.88695
2.95103,1.71889,-2.36263,-8.13101
2.96106,1.02786,-2.75707,-8.23845
2.9711,0.29239,-3.69141,-8.63319
2.98114,0.2701,-5.12464,-9.1876
2.99118,-0.79936,-5.56457,-9.73198
3.00121,-0.79936,-5.56457,-9.73198
3.01125,-0.98043,-5.28819,-9.75757
3.02129,-0.94242,-4.85619,-9.42882
3.03133,-0.79383,-4.52325,-9.25838
3.04136,-0.68968,-4.21828,-9.33918
3.0514,-0.36108,-4.24761,-10.12598
3.06144,-0.14455,-4.65373,-10.89736
3.07148,-0.48258,-4.14406,-10.33816
3.08151,-0.4968,-4.37615,-9.39485
3.09155,-0.12809,-4.91305,-8.6293
3.10159,0.21653,-4.75204,-8.28274
3.11163,0.38876,-4.26647,-9.12774
3.12167,0.7027,-3.35083,-8.96359
3.1317,0.7006,-3.32255,-8.6709
3.14174,0.4546,-3.86364,-8.65579
3.15178,0.17163,-4.34263,-8.37148
3.16182,0.0832,-4.63054,-8.56122
3.17185,0.09038,-4.38214,-8.91017
3.18189,0.44607,-3.78508,-9.19568
3.19193,1.02188,-3.22888,-9.10844
3.20197,1.44011,-2.92975,-8.65429
3.212,1.60217,-3.07415,-7.93932
3.22204,1.47303,-3.22649,-7.32671
3.23208,0.62174,-4.54868,-7.82425
3.24212,-0.25588,-5.29298,-8.25027
3.25215,-0.72051,-5.13227,-8.68916
3.26219,-0.33249,-4.4791,-8.67165
3.27223,0.28895,-3.96764,-8.60536
3.28227,0.60439,-3.80289,-8.59982
3.2923,0.21443,-4.02809,-8.90793
3.30234,-0.43126,-4.34727,-9.48987
3.31238,-0.52598,-4.3751,-9.62514
3.32242,0.06345,-3.83686,-9.26691
3.33245,0.7211,-3.30998,-8.9196
3.34249,1.10896,-3.12279,-8.53443
3.35253,1.15685,-3.06997,-8.35053
3.36257,0.81612,-3.33602,-8.32823
3.3726,0.27848,-3.77117,-8.4837
3.38264,-0.16894,-4.05278,-8.79106
3.39268,-0.25977,-3.96046,-9.1463
3.40272,-0.08933,-3.73032,-9.26152
3.41275,0.20201,-3.56497,-9.28516
3.42279,0.4543,-3.38839,-9.31
3.43283,0.66514,-3.26853,-9.19014
3.44287,0.61336,-3.32674,-9.05741
3.4529,0.3114,-3.54252,-9.16186
3.46294,0.00045,-3.68079,-9.30955
3.47298,-0.14006,-3.73151,-9.40457
3.48302,-0.02469,-3.62751,-9.41969
3.49305,0.08514,-3.56018,-9.39185
3.50309,0.26366,-3.52037,-9.4333
3.51313,0.34357,-3.45693,-9.55481
3.52317,0.27399,-3.4906,-9.68215
3.5332,0.2879,-3.47518,-9.54164
3.54324,0.4341,-3.3667,-9.36687
3.55328,0.64838,-3.28185,-9.23608
3.56332,0.71646,-3.23786,-9.30492
3.57335,0.63955,-3.24414,-9.42941
3.58339,0.48797,-3.36954,-9.40772
3.59343,0.37664,-3.48491,-9.29848
3.60347,0.1848,-3.62123,-9.10859
3.6135,0.0012,-3.75007,-9.03856
3.62354,0.03412,-3.68468,-9.03362
3.63358,0.32741,-3.4683,-9.15438
3.64362,0.7841,-3.14867,-9.291
3.65365,1.09176,-2.98692,-9.34442
3.66369,1.01529,-3.0369,-9.29399
3.67373,0.71168,-3.24205,-9.2096
3.68377,0.42228,-3.41922,-9.11862
3.6938,0.29119,-3.51199,-9.09901
3.70384,0.34342,-3.48491,-9.11877
3.71388,0.50847,-3.34051,-9.20256
3.72392,0.66125,-3.18938,-9.22725
3.73395,0.64195,-3.17666,-9.19254
3.74399,0.50847,-3.29263,-9.09303
3.75403,0.41539,-3.37882,-8.97706
3.76407,0.49425,-3.35278,-9.02015
3.7741,0.62189,-3.21047,-9.09767
3.78414,0.744,-3.06024,-9.21124
3.79418,0.82869,-3.00083,-9.2696
3.80422,0.66319,-3.08837,-9.09318
3.81425,0.28326,-3.3869,-8.77146
3.82429,0.11507,-3.52771,-8.50914
3.83433,0.31873,-3.3429,-8.36669
3.84437,0.65167,-3.03824,-8.33272
3.8544,0.82585,-2.92003,-8.51184
3.86444,0.73846,-2.98048,-8.66462
3.87448,0.46163,-3.16244,-8.5045
3.88452,0.13677,-3.38331,-8.10647
3.89455,-0.03995,-3.47578,-7.60743
3.90459,-0.09263,-3.40859,-7.1208
3.91463,-0.08514,-3.28544,-6.92223
3.92467,-0.11956,-3.23876,-6.78532
3.93471,-0.46597,-3.35473,-6.39776
3.94474,-0.90441,-3.4885,-5.89243
3.95478,-1.17525,-3.35158,-5.58687
3.96482,-1.37427,-3.13341,-5.62637
3.97486,-1.5052,-2.84177,-5.74429
3.98489,-1.69001,-2.6423,-5.8441
3.99493,-2.17184,-2.51002,-5.60827
4.00497,-3.05515,-2.64006,-5.20963
4.01501,-4.12521,-2.92332,-5.62592
4.02504,-5.02827,-3.01146,-6.98059
4.03508,-5.78155,-3.0984,-8.19266
4.04512,-6.17225,-2.98123,-8.99636
4.05516,-6.16956,-2.47052,-9.87907
4.06519,-6.2773,-2.29125,-10.42675
4.07523,-7.29513,-2.77832,-11.18511
4.08527,-8.90763,-3.60208,-11.8498
4.09531,-10.33697,-4.32408,-11.81553
4.10534,-11.39041,-4.52534,-11.33595
4.11538,-11.53541,-4.16217,-11.36827
4.12542,-11.18541,-3.58816,-12.12543
4.13546,-10.65554,-3.00248,-13.16003
4.14549,-9.80665,-2.56703,-13.9763
4.15553,-8.59548,-1.84144,-14.66778
4.16557,-7.66878,-1.29362,-15.64955
4.17561,-6.90203,-1.14578,-17.18453
4.18564,-5.93268,-0.87643,-18.94666
4.19568,-5.34281,-0.84964,-20.34099
4.20572,-5.22894,-1.17211,-21.23896
4.21576,-5.31169,-1.73565,-22.5658
4.22579,-4.64715,-1.68672,-24.13804
4.23583,-3.29337,-1.02711,-25.1662
4.24587,-2.3966,-0.62085,-26.01031
4.25591,-1.92314,-0.4935,-26.46461
4.26594,-1.56686,-0.32187,-26.47957
4.27598,-1.32669,-0.1251,-26.21696
4.28602,-1.15371,0.09741,-25.78839
4.29606,-1.28599,0.1854,-26.13361
4.30609,-0.91907,0.70165,-26.7986
4.31613,0.11313,1.87735,-26.27472
4.32617,1.30155,2.96791,-25.29444
4.33621,2.43266,3.87935,-24.38689
4.34624,3.55225,4.68934,-23.18261
4.35628,4.69054,5.36301,-21.68054
4.36632,5.7612,5.83063,-19.81367
4.37636,6.46988,6.08815,-18.13832
4.3864,6.53497,6.05389,-16.95095
4.39643,5.89871,5.71556,-16.54139
4.40647,5.23343,5.32455,-16.30721
4.41651,5.5734,5.65331,-14.21258
4.42655,6.45073,5.95767,-11.96293
4.43658,7.12051,5.90515,-10.8613
4.44662,7.18425,5.41568,-9.90631
4.45666,6.67459,4.75189,-9.13388
4.4667,5.91487,4.23998,-8.115
4.47673,5.46207,3.99473,-6.92373
4.48677,5.15666,4.09408,-6.39252
4.49681,4.83644,3.98395,-7.15717
4.50685,5.0769,4.29804,-7.31653
4.51688,5.69611,4.39186,-6.17539
4.52692,5.91787,4.07957,-4.9346
4.53696,5.37543,3.446,-3.97093
4.547,4.42044,2.63796,-2.89145
4.55703,3.64502,1.94948,-1.93152
4.56707,3.23172,1.4859,-1.11196
4.57711,2.90776,1.13126,-0.66484
4.58715,2.50598,0.65556,-0.91279
4.59718,1.91521,-0.01167,-1.43293
4.60722,1.37786,-0.6605,-1.53214
4.61726,0.87837,-1.33956,-1.41258
4.6273,0.42153,-1.77949,-1.22673
4.63733,-0.06734,-2.2504,-1.8784
4.64737,-0.40911,-2.3752,-2.26267
4.65741,-0.49395,-2.25743,-1.46061
4.66745,-0.38711,-2.05243,-0.59376
4.67748,-0.61531,-2.41964,-0.53076
4.68752,-1.18752,-2.99604,-0.93419
4.69756,-1.22299,-3.23068,-1.38519
4.7076,-0.92341,-3.13177,-1.63075
4.71763,-0.00554,-2.50463,-1.35512
4.72767,0.56937,-1.96938,-1.20847
4.73771,-0.30436,-2.26791,-1.48859
4.74775,-2.00709,-3.00742,-2.14565
4.75778,-3.33722,-3.82638,-2.39779
4.76782,-3.93951,-4.15005,-1.62955
4.77786,-3.99248,-4.01223,-0.69716
4.7879,-3.93592,-3.76847,-0.02319
4.79793,-3.66492,-3.34635,0.32382
4.80797,-3.77132,-3.04617,0.03935
4.81801,-4.44289,-3.49389,-1.08742
4.82805,-5.11057,-3.78448,-1.81525
4.83808,-5.67516,-3.96629,-2.11827
4.84812,-6.33027,-4.15619,-2.07607
4.85816,-6.4434,-4.18985,-1.3816
4.8682,-6.49293,-4.01732,-0.95663
4.87823,-6.56909,-4.05383,-1.38056
4.88827,-6.04506,-3.79795,-1.67385
4.89831,-5.0787,-3.16364,-1.56356
4.90835,-4.09423,-2.37415,-1.24633
4.91838,-3.93427,-1.71979,-1.03923
4.92842,-5.07152,-1.7946,-1.79879
4.93846,-7.08504,-2.724,-2.62674
4.9485,-8.80438,-3.86439,-3.137
4.95853,-9.27304,-4.31016,-3.45483
4.96857,-8.75754,-4.15439,-3.38076
4.97861,-8.16662,-3.77416,-3.15017
4.98865,-7.92511,-3.51873,-3.45827
4.99869,-7.9477,-3.09286,-4.05069
5.00872,-7.88815,-2.34617,-4.78032
5.01876,-7.79567,-1.67624,-6.14876
5.0288,-7.63257,-1.49742,-7.63511
5.03884,-7.72115,-1.70916,-8.16872
5.04887,-8.23067,-2.17408,-8.46081
5.05891,-9.21199,-2.04106,-9.18087
5.06895,-10.33352,-1.63434,-10.15112
5.07899,-11.01228,-1.11585,-10.8782
5.08902,-10.86713,-0.51745,-11.86506
5.09906,-10.05699,-1.21191,-12.74987
5.1091,-9.64759,-1.63928,-13.29784
5.11914,-9.45126,-1.72622,-14.92934
5.12917,-8.77041,-1.72906,-16.36826
5.13921,-7.83098,-0.71018,-17.09295
5.14925,-6.98149,0.1254,-17.7548
5.15929,-6.03743,0.24481,-18.69647
5.16932,-4.36822,0.13856,-19.1397
5.17936,-2.87439,-0.48513,-19.22619
5.1894,-2.08954,-0.88795,-19.4068
5.19944,-1.8989,-1.10537,-19.82653
5.20947,-1.93347,-0.51221,-20.39755
5.21951,-1.01155,0.74744,-21.52507
5.22955,0.96067,2.02475,-22.08801
5.23959,3.15376,2.06994,-21.53091
5.24962,4.0884,0.9303,-20.01089
5.25966,3.47533,0.01721,-17.97701
5.2697,2.8907,-0.16715,-16.67935
5.27974,2.83892,0.09457,-16.72829
5.28977,3.05395,0.64105,-17.12258
5.29981,3.13147,1.04327,-17.08876
5.30985,3.04602,1.25381,-16.41165
5.31989,3.1394,1.37158,-14.95299
5.32992,3.44256,0.3723,-13.23589
5.33996,3.36864,-0.65377,-11.29629
5.35,2.92946,-1.0946,-9.16186
5.36004,2.54908,-1.49039,-7.76021
5.37007,2.22137,-1.51688,-7.65486
5.38011,2.32268,-1.16209,-8.4008
5.39015,2.67881,-0.61531,-9.36357
5.40019,3.04812,-0.13767,-9.96826
5.41022,3.04961,0.21638,-10.32395
5.42026,2.92736,0.42347,-10.37602
5.4303,2.78954,0.55501,-10.32604
5.44034,2.73059,0.77976,-9.90721
5.45037,2.45989,0.78335,-9.1644
5.46041,1.93586,0.62549,-8.54865
5.47045,1.507,0.36108,-8.28169
5.48049,1.14084,0.22206,-8.35651
5.49052,0.91339,0.17238,-8.53548
5.50056,0.72709,0.10355,-8.72013
5.5106,0.64614,0.16685,-8.71953
5.52064,0.51161,0.14126,-8.83416
5.53068,0.309,0.01556,-9.0022
5.54071,0.13797,-0.10729,-9.05517
5.55075,0.15039,-0.1631,-9.08644
5.56079,0.26217,-0.1043,-9.02345
5.57083,0.39834,0.01047,-9.24132
5.58086,0.42617,-0.00673,-9.52398
5.5909,0.24615,-0.0808,-9.51381
5.60094,0.14066,-0.12644,-9.42208
5.61098,0.21054,-0.10834,-9.19837
5.62101,0.13198,-0.12614,-9.35489
5.63105,0.04429,-0.19603,-9.53446
5.64109,-0.01601,-0.21832,-9.58145
5.65113,-0.10235,-0.32636,-9.61137
5.66116,-0.12899,-0.43185,-9.47894
5.6712,-0.05043,-0.4148,-9.52668
5.68124,0.0006,-0.35494,-9.83927
5.69128,0.04744,-0.31948,-10.10652
5.70131,0.10894,-0.27713,-10.07929
5.71135,0.07482,-0.23733,-9.76475
5.72139,0.07213,-0.26725,-9.62933
5.73143,-0.02005,-0.34327,-9.68933
5.74146,-0.01287,-0.42527,-9.73812
5.7515,0.09921,-0.39549,-9.87623
5.76154,0.21129,-0.2692,-9.89943
5.77158,0.30616,-0.1655,-9.83837
5.78161,0.24585,-0.16355,-9.77747
5.79165,0.03397,-0.26291,-9.87578
5.80169,-0.13512,-0.35988,-10.01135
5.81173,-0.10864,-0.27907,-10.06837
5.82176,-0.0015,-0.15951,-10.11894
5.8318,0.05851,-0.09487,-10.18658
5.84184,0.10609,-0.06375,-10.23401
5.85188,0.04339,-0.11866,-10.10144
5.86191,-0.08499,-0.2288,-9.88297
5.87195,-0.14769,-0.27025,-9.72749
5.88199,-0.02679,-0.24675,-10.02198
5.89203,-0.02679,-0.24675,-10.02198
5.90206,-0.06569,-0.25842,-10.13855
5.9121,-0.01302,-0.26785,-9.94985
5.92214,0.04893,-0.22371,-9.7453
5.93218,0.07572,-0.20066,-9.61466
5.94221,0.09263,-0.2291,-9.55855
5.95225,0.05297,-0.26426,-9.61003
5.96229,0.02708,-0.26366,-9.57516
5.97233,0.03112,-0.28775,-9.58878
5.98236,0.02185,-0.28087,-9.61796
5.9924,0.1013,-0.22685,-9.7016
6.00244,0.23733,-0.16685,-9.68589
6.01248,0.3943,-0.11851,-9.61257
6.02252,0.3937,-0.17717,-9.54628
6.03255,0.27054,-0.30017,-9.53416
6.04259,0.07841,-0.42258,-9.41475
6.05263,-0.07407,-0.50518,-9.21813
6.06267,-0.06345,-0.52702,-9.23204
6.0727,0.0814,-0.4335,-9.43764
6.08274,0.27384,-0.27952,-9.58953
6.09278,0.36227,-0.18001,-9.6829
6.10282,0.24645,-0.20695,-9.71387
6.11285,0.00479,-0.25528,-9.72166
6.12289,-0.03831,-0.23538,-9.89164
6.13293,0.07587,-0.11657,-10.16129
6.14297,0.25379,-0.02604,-10.27816
6.153,0.33489,-0.03891,-10.14244
6.16304,0.27833,-0.11058,-9.86411
6.17308,0.21129,-0.1851,-9.54568
6.18312,0.09053,-0.29075,-9.41445
6.19315,0.07811,-0.29987,-9.49795
6.20319,0.09472,-0.25244,-9.47775
6.21323,0.09622,-0.22161,-9.45306
6.22327,0.11073,-0.18435,-9.56888
6.2333,0.16056,-0.13916,-9.52309
6.24334,0.23478,-0.08469,-9.42268
6.25338,0.23194,-0.12734,-9.44513
6.26342,0.11791,-0.19348,-9.59611
6.27345,-0.02843,-0.21518,-9.67931
6.28349,-0.09427,-0.22072,-9.79677
6.29353,-0.03457,-0.16236,-9.94327
6.30357,0.08814,-0.0208,-9.96631
6.3136,0.14814,0.01092,-10.05535
6.32364,0.13467,0.01302,-10.09276
6.33368,0.18705,0.0009,-10.23162
6.34372,0.11238,-0.07632,-10.22623
6.35375,-0.02738,-0.25289,-10.09306
6.36379,-0.08125,-0.25019,-10.02467
6.37383,0.05402,-0.15996,-10.00821
6.38387,0.19498,-0.09861,-10.04023
6.3939,0.18181,-0.10759,-9.96901
6.40394,0.11178,-0.16685,-9.75383
6.41398,0.01362,-0.2475,-9.55436
6.42402,-0.07527,-0.30765,-9.57112
6.43405,-0.10998,-0.28102,-9.78256
6.44409,-0.0223,-0.19917,-10.01749
6.45413,0.10385,-0.07497,-10.2005
6.46417,0.11058,-0.09023,-9.93728
6.47483,0.11058,-0.09023,-9.93728
6.48487,0.06345,-0.1224,-9.69891
6.49491,0.05282,-0.16026,-9.49974
6.50494,0.02649,-0.17942,-9.42777
6.51498,-0.06165,-0.15787,-9.4746
6.52502,-0.05776,-0.17747,-9.65896
6.53506,0.00105,-0.11926,-9.86576
6.54509,0.13108,0.00569,-9.85334
6.55513,0.26845,0.0618,-9.72614
6.56517,0.27728,-0.00464,-9.55197
6.57521,0.25408,-0.06629,-9.42148
6.58525,0.23613,-0.13018,-9.36552
6.59528,0.15383,-0.2255,-9.27529
6.60532,0.09307,-0.3289,-9.14316
6.61536,0.0223,-0.34686,-9.00788
6.6254,0.03442,-0.33653,-8.96853
6.63543,0.09906,-0.21338,-9.0643
6.64547,0.22446,-0.02753,-9.37031
6.65551,0.23867,0.05357,-9.81772
6.66555,0.18196,0.12689,-10.02138
6.67558,0.2493,0.25349,-10.07345
6.68562,0.33294,0.31798,-10.16069
6.69566,0.34058,0.33534,-10.06657
6.7057,0.32561,0.30855,-9.90646
6.71573,0.39834,0.36512,-9.79273
6.72577,0.31259,0.29374,-9.79139
6.73581,0.23179,0.25633,-9.86815
6.74585,0.20022,0.30062,-9.99564
6.75588,0.16041,0.28581,-9.94177
6.76592,0.22251,0.32816,-9.92037
6.77596,0.2276,0.29957,-9.93833
6.786,0.17867,0.29284,-9.86306
6.79603,0.17672,0.26501,-9.94851
6.80607,0.23882,0.32935,-9.99684
6.81611,0.27099,0.37125,-9.98636
6.82615,0.15353,0.27264,-9.93728
6.83618,0.03651,0.15278,-9.76281
6.84622,-0.00853,0.13886,-9.65731
6.85626,0.07467,0.15652,-9.70834
6.8663,0.21099,0.21264,-9.77792
6.87633,0.24915,0.23209,-9.93369
6.88637,0.24526,0.21892,-9.93669
6.89641,0.18959,0.16565,-9.78121
6.90645,0.11926,0.15353,-9.59342
6.91648,0.0425,0.09577,-9.55257
6.92652,0.02978,0.07033,-9.67856
6.93656,0.13318,0.11253,-9.80934
6.9466,0.25753,0.18735,-9.91873
6.95663,0.26665,0.18361,-9.90616
6.96667,0.2481,0.16969,-9.78256
6.97671,0.26052,0.17478,-9.67048
6.98675,0.18361,0.15039,-9.62125
6.99679,0.18809,0.12091,-9.66719
7.00682,0.14964,0.10924,-9.68948
7.01686,0.14156,0.08065,-9.66629
7.0269,0.21668,0.13677,-9.73467
7.03694,0.27503,0.16086,-9.81219
7.04697,0.31499,0.17463,-9.7453
7.05701,0.25453,0.17597,-9.7034
7.06705,0.25274,0.24047,-9.79827
7.07708,0.33205,0.32067,-9.90197
7.08712,0.36586,0.31259,-10.04802
7.09716,0.33953,0.28237,-10.18927
7.1072,0.23912,0.26591,-10.13136
7.11724,0.20007,0.26695,-9.89
7.12727,0.24436,0.28581,-9.67153
7.13731,0.23927,0.25214,-9.57426
7.14798,0.22236,0.25842,-9.70026
7.15801,0.23328,0.29344,-9.83703
7.16805,0.33115,0.36482,-9.90496
7.17809,0.39998,0.45774,-10.00806
7.18812,0.3922,0.46852,-10.05265
7.19816,0.3925,0.4754,-9.90496
7.2082,0.38666,0.45565,-9.78031
7.21824,0.372,0.394,-9.73378
7.22827,0.33698,0.36078,-9.66494
7.23831,0.33893,0.34402,-9.6012
7.24835,0.31903,0.32471,-9.58115
7.25839,0.34761,0.35314,-9.65596
7.26843,0.44876,0.42632,-9.74709
7.27846,0.5348,0.48183,-9.75233
7.2885,0.55231,0.50039,-9.73482
7.29854,0.4944,0.45595,-9.71298
7.30858,0.37574,0.40432,-9.66539
7.31861,0.31948,0.34462,-9.73273
7.32865,0.36781,0.36527,-9.77448
7.33869,0.43754,0.40073,-9.8056
7.34873,0.44742,0.40731,-9.8478
7.35876,0.41928,0.38008,-9.79154
7.3688,0.40402,0.35913,-9.67198
7.37884,0.37709,0.34836,-9.69083
7.38888,0.34925,0.34132,-9.82236
7.39891,0.41016,0.37499,-9.91469
7.40895,0.38636,0.33938,-9.827
7.41899,0.27578,0.29224,-9.67272
7.42903,0.24361,0.29763,-9.54299
7.43906,0.22895,0.30017,-9.56364
7.4491,0.29838,0.34372,-9.62065
7.45914,0.41569,0.41644,-9.65911
7.46918,0.42018,0.46866,-9.69786
7.47921,0.37125,0.45849,-9.74231
7.48925,0.22146,0.38981,-9.79393
7.49929,0.06225,0.3301,-9.72195
7.50933,0.07048,0.32711,-9.52024
7.51936,0.12285,0.34447,-9.43929
7.5294,0.10415,0.33205,-9.53311
7.53944,-0.00898,0.28596,-9.58025
7.54948,-0.29224,0.15652,-9.58818
7.55951,-0.69746,-0.06464,-9.47565
7.56955,-1.24992,-0.27159,-9.35968
7.57959,-1.75061,-0.50548,-9.32751
7.58963,-1.98644,-0.4971,-9.21064
7.59966,-2.16137,-0.33055,-8.99831
7.6097,-2.41949,-0.19288,-8.89581
7.61974,-2.71278,-0.05177,-9.01881
7.62978,-2.92631,0.03397,-9.06774
7.63982,-3.15571,0.01062,-8.97451
7.64985,-3.56437,-0.15054,-8.80752
7.65989,-4.06431,-0.33489,-8.6094
7.66993,-4.52145,-0.50024,-8.23022
7.67997,-5.0579,-0.65646,-7.67207
7.69,-5.73546,-0.95319,-7.57555
7.70004,-6.45611,-1.37547,-7.91239
7.71008,-7.06828,-1.56895,-8.30249
7.72012,-7.32416,-1.51403,-8.5464
7.73015,-7.32147,-1.37801,-8.74407
7.74019,-7.4117,-1.34165,-9.16096
7.75023,-7.62044,-1.38729,-9.93414
7.76027,-7.73552,-1.46405,-10.85681
7.7703,-7.69526,-1.42335,-11.92387
7.78034,-7.52004,-1.11749,-13.31415
7.79038,-7.09237,-0.50308,-14.86201
7.80042,-6.48814,0.13722,-16.67292
7.81045,-5.70733,0.83662,-18.87603
7.82049,-4.84781,1.39358,-20.76237
7.83053,-3.72732,1.91761,-21.71705
7.84057,-2.57392,2.45451,-22.1745
7.8506,-1.59484,2.79388,-22.53946
7.86064,-0.56758,2.96672,-22.60081
7.87068,0.40642,2.96567,-22.60919
7.88072,1.26399,2.92452,-22.42185
7.89075,1.84683,2.93305,-22.26353
7.90079,2.35096,3.02582,-22.21475
7.91083,2.81169,3.29472,-22.56355
7.92087,3.18788,3.50332,-23.39584
7.9309,3.9036,4.03483,-23.48652
7.94094,4.50304,4.5421,-22.96997
7.95098,4.77524,4.69907,-22.41945
7.96102,4.83689,4.7706,-21.86714
7.97105,4.7269,4.71628,-20.90677
7.98109,4.57472,4.48658,-19.51214
7.99113,4.51127,4.14167,-17.95726
8.00117,4.72152,3.83012,-16.43425
8.01121,5.14768,3.74004,-15.00446
8.02124,5.73426,3.95986,-13.82607
8.03128,6.45836,4.24402,-12.98376
8.04132,7.0391,4.34593,-12.09715
8.05136,7.32416,4.50319,-11.0048
8.06139,7.54757,4.84452,-9.40817
8.07143,7.7442,4.79334,-7.26925
8.08147,8.01698,4.2955,-5.61111
8.09151,8.14747,3.83252,-5.02319
8.10154,7.74883,3.12249,-4.4164
8.11158,7.4524,2.26357,-3.77715
8.12162,7.65022,2.03387,-3.82623
8.13166,7.69003,2.55701,-3.78523
8.14169,7.63331,2.91464,-2.5398
8.15173,7.44372,3.17082,-1.0717
8.16177,6.91745,3.31537,-0.48961
8.17181,6.25186,3.09959,-0.67606
8.18184,5.61635,2.7861,-1.46121
8.19188,4.89375,2.61911,-2.48428
8.20192,4.32393,2.55132,-2.97659
8.21196,4.1915,2.2085,-2.87559
8.22199,3.90554,2.21778,-1.45807
8.23203,3.08238,2.22631,0.66619
8.24207,1.9622,1.61354,1.82947
8.25211,0.71242,0.94631,1.80388
8.26214,-0.0416,0.32082,0.90142
8.27218,-0.3322,-0.10041,0.25274
8.28222,-0.63386,-0.23164,0.55531
8.29226,-0.83647,-0.23239,1.14907
8.30229,-0.91728,-0.30616,1.60232
8.31233,-1.33148,-0.5176,1.82274
8.32237,-1.78458,-0.5981,2.2278
8.33241,-2.10585,-1.00811,2.53292
8.34245,-2.20865,-1.52765,2.30232
8.35248,-1.71889,-1.38923,2.00425
8.36252,-1.06916,-1.03624,1.35751
8.37256,-0.89259,-0.81418,1.04986
8.3826,-1.11764,-0.38876,1.19486
8.39263,-1.8374,-0.50473,0.83543
8.40267,-2.96178,-1.03878,0.13467
8.41271,-3.99293,-1.74837,-0.52134
8.42275,-4.44289,-2.05931,-0.76914
8.43278,-4.22068,-1.04582,-0.67576
8.44282,-4.52773,0.09053,-1.51733
8.45286,-5.61889,0.32456,-3.54626
8.4629,-6.54216,0.36093,-4.86277
8.47293,-6.76497,0.60543,-5.139
8.48297,-6.7732,0.92955,-5.23103
8.49301,-7.02653,1.30454,-4.97455
8.50305,-7.35993,1.72532,-5.00628
8.51308,-7.98781,1.57209,-5.98266
8.52312,-9.03931,0.72275,-7.56089
8.53316,-9.63262,0.05103,-8.65639
8.5432,-9.6805,-0.62833,-9.67228
8.55323,-9.57007,-0.99778,-10.40281
8.56327,-9.56648,-0.8884,-9.55062
8.57331,-10.10712,-0.79607,-7.58603
8.58335,-11.25724,-1.35527,-7.018
8.59338,-12.84085,-2.35769,-8.04347
8.60342,-13.82532,-3.5084,-9.39096
8.61346,-13.71414,-4.57278,-9.14151
8.6235,-13.92138,-5.31872,-7.81348
8.63353,-14.84196,-5.14379,-6.59019
8.64357,-15.98803,-4.31974,-5.89767
8.65361,-17.22613,-3.51544,-7.43445
8.66365,-17.23287,-2.58768,-10.55843
8.67369,-15.45891,-0.54453,-13.30353
8.68372,-13.12621,1.59454,-16.44697
8.69376,-11.3955,2.64455,-19.62018
8.7038,-10.45473,3.52337,-21.80803
8.71384,-9.62723,4.72556,-22.61578
8.72387,-8.93381,5.89632,-22.67279
8.73391,-8.18593,6.1323,-22.84846
8.74395,-6.37381,6.83425,-23.4542
8.75399,-4.40219,7.91643,-25.41879
8.76402,-2.25923,8.45557,-26.88539
8.77406,-0.21518,8.77176,-27.59482
8.7841,1.261,9.13238,-27.57387
8.79414,2.6408,9.33888,-26.13421
8.80417,3.80379,9.12834,-24.35636
8.81421,4.66989,8.75829,-22.46105
8.82425,5.50756,8.09105,-20.02391
8.83429,5.69057,6.93899,-17.90908
8.84432,5.09531,5.59435,-16.14021
8.85436,4.63667,4.66555,-14.54732
8.8644,4.65059,4.56395,-13.64051
8.87444,4.94268,4.82551,-13.6682
8.88447,5.11207,4.59866,-14.45948
8.89451,5.11207,3.83746,-14.85198
8.90455,4.30896,3.05755,-13.7291
8.91459,3.408,1.88543,-11.19125
8.92462,2.99425,0.76285,-8.48505
8.93466,2.44762,-0.03546,-6.12407
8.9447,1.85835,-0.85653,-4.89569
8.95474,1.40285,-1.64377,-5.37723
8.96478,1.2179,-1.73355,-6.87974
8.97481,1.60112,-1.06961,-8.26314
8.98485,2.14146,-0.2906,-8.3408
8.99489,2.33824,0.03307,-7.86495
9.00493,2.14984,-0.1046,-7.26506
9.01496,1.82902,-0.37005,-6.34852
9.025,1.53184,-0.48378,-5.86564
9.03504,1.53438,-0.44143,-6.11494
9.04508,1.83022,-0.12091,-6.94318
9.05511,2.09822,0.29703,-7.79163
9.06515,2.35664,0.27728,-8.58381
9.07519,2.05408,0.0404,-8.78896
9.08523,1.32669,-0.16939,-8.07639
9.09526,0.63072,-0.39908,-7.19817
9.1053,0.42422,-0.42707,-6.85789
9.11534,0.5972,-0.26127,-7.79941
9.12538,0.60633,-0.0808,-9.10111
9.13541,0.79697,-0.0606,-10.27606
9.14545,1.05195,-0.18331,-11.79967
9.15549,1.36918,-0.12629,-12.60831
9.16553,1.97372,0.28341,-11.51865
9.17556,1.98404,0.55411,-9.68559
9.1856,1.35602,0.22655,-8.0731
9.19564,0.353,-0.66349,-7.52572
9.20568,-0.27818,-1.31412,-7.96042
9.21572,-0.28192,-1.27716,-8.19401
9.22575,0.02529,-0.91084,-8.08297
9.23579,0.33668,-0.47839,-8.0095
9.24583,0.14036,-0.39444,-8.06472
9.25587,-0.25872,-0.42722,-8.08522
9.2659,-0.31424,-0.25648,-8.55329
9.27594,-0.24406,0.0841,-9.37659
9.28598,0.11597,0.28656,-10.31512
9.29602,0.29419,0.41644,-10.78812
9.30605,0.3937,0.50458,-10.27546
9.31609,0.82316,0.76091,-9.60868
9.32613,1.20743,0.97294,-9.42777
9.33617,1.32295,0.85189,-9.73363
9.3462,1.05495,0.54094,-10.14977
9.35624,0.64404,0.20007,-9.99115
9.36628,0.40956,0.09682,-9.38737
9.37632,0.50518,0.31603,-8.7122
9.38635,0.69372,0.45161,-8.56855
9.39639,0.79547,0.52942,-9.08046
9.40643,0.85862,0.70449,-9.74081
9.41647,0.86401,0.73622,-10.04562
9.42651,0.74789,0.60424,-10.17162
9.43654,0.73173,0.53196,-10.11909
9.44658,0.8471,0.57596,-10.03814
9.45662,0.90112,0.56024,-9.92397
9.46665,0.78096,0.45131,-9.58773
9.47669,0.58239,0.32307,-9.47101
9.48673,0.35599,0.15981,-9.65357
9.49677,0.16011,0.04205,-9.73707
9.50681,0.32756,0.12614,-9.90825
9.51684,0.69731,0.36467,-10.0754
9.52688,0.84485,0.4344,-10.28055
9.53692,0.89977,0.41315,-10.36495
9.54696,0.89962,0.50308,-10.24913
9.55699,0.58014,0.36512,-10.13331
9.56703,0.32052,0.19423,-10.02437
9.57707,0.45475,0.17223,-10.15531
9.58711,0.80041,0.2077,-10.5686
9.59714,1.0111,0.25798,-10.63295
9.60718,0.93778,0.26935,-10.03395
9.61722,0.80296,0.16266,-9.14031
9.62726,0.64823,0.13333,-8.39392
9.63729,0.40597,0.11791,-7.97075
9.64733,0.03232,-0.09322,-8.31387
9.65737,-0.23598,-0.19603,-9.08929
9.66741,-0.2068,-0.19318,-9.73722
9.67745,0.05522,-0.03172,-10.10338
9.68748,0.26037,0.1658,-9.96721
9.69752,0.2882,0.2258,-9.50902
9.70756,0.12225,0.20755,-9.19957
9.71759,-0.04714,0.27129,-9.24895
9.72763,-0.11747,0.20261,-9.41295
9.73767,-0.25827,0.00494,-9.73632
9.74771,-0.42632,-0.08724,-10.03844
9.75774,-0.35928,-0.05836,-9.87623
9.76778,-0.25977,-0.0196,-9.43615
9.77782,-0.29898,0.02409,-9.08719
9.78786,-0.47151,0.13856,-8.9199
9.7979,-0.49111,0.30676,-8.85017
9.80793,-0.47854,0.37679,-9.10216
9.81797,-0.52418,0.19737,-9.94147
9.82801,-0.36078,0.17119,-11.19349
9.83805,-0.23613,0.37305,-11.99211
9.84808,-0.13797,0.59631,-11.6635
9.85812,-0.12285,0.58134,-10.63819
9.86816,-0.23284,0.33489,-10.03515
9.8782,-0.43739,0.10983,-9.86755
9.88823,-0.43739,-0.07392,-9.96527
9.89827,-0.21802,-0.02843,-10.18104
9.90831,-0.01541,0.10894,-10.26649
9.91835,-0.00733,0.18031,-10.23252
9.92838,-0.11806,0.27099,-9.64714
9.93842,-0.09128,0.20515,-9.09063
9.94846,-0.13123,0.14081,-9.39575
9.9585,-0.21802,0.16056,-9.88431
9.96854,-0.24989,0.17014,-9.95838
9.97857,-0.10295,0.28446,-9.91768
9.98861,-0.11028,0.4959,-9.7257
9.99865,-0.38592,0.48034,-9.27933
10.00868,-0.81971,0.21488,-8.83715
10.01872,-1.49323,0.08754,-8.53428
10.02876,-2.08715,0.01796,-8.22663
10.0388,-2.56928,-0.14006,-8.42774
10.04884,-3.17426,0.08709,-8.90583
10.05887,-3.67734,0.24496,-9.17742
10.06891,-4.31256,-0.05686,-8.75949
10.07895,-5.514,-0.70584,-8.21196
10.08899,-7.27703,-1.71215,-7.96566
10.09902,-9.29459,-2.46887,-8.06412
10.10906,-10.97083,-3.14972,-9.05786
10.1191,-11.78142,-3.39603,-10.45159
10.12914,-11.17568,-2.58005,-11.72874
10.13917,-9.64384,-1.24469,-13.16916
10.14921,-8.50705,-0.46193,-13.64246
10.15925,-8.47742,-0.49141,-13.78402
10.16929,-9.11428,-0.52702,-14.2473
10.17932,-9.52683,-0.65182,-15.25271
10.18936,-8.94623,-0.46612,-16.90321
10.1994,-7.4114,0.22685,-18.82351
10.20944,-5.97847,0.67906,-21.52238
10.21947,-4.61093,1.17615,-24.66596
10.22951,-3.29771,1.67459,-27.2306
10.23955,-1.84428,2.1901,-29.03194
10.24959,-0.17582,2.46842,-30.35444
10.25962,1.35721,2.69138,-31.84243
10.26966,3.03001,2.94861,-33.62148
10.2797,5.34356,3.60462,-35.58292
10.28974,8.3007,4.52953,-37.39893
10.29978,10.50651,5.30525,-36.57756
10.30981,11.86192,6.31216,-32.59855
10.31985,13.3565,7.36591,-28.24125
10.32989,15.2349,9.01971,-24.70262
10.33993,17.5064,10.80937,-22.37785
10.34996,19.72538,12.11571,-20.32034
10.36,21.00703,13.75484,-16.85488
10.37004,21.25228,15.27725,-10.88868
10.38008,21.72873,16.3322,-3.45977
10.39011,22.40539,17.3424,2.81394
10.40015,22.28014,18.02879,6.71843
10.41019,20.79858,17.78278,8.82263
10.42023,18.37909,17.0741,10.53778
10.43026,14.95373,16.04998,11.84995
10.4403,11.00031,15.06701,11.75553
10.45034,6.93077,14.17936,10.59719
10.46038,2.97016,13.25684,8.7351
10.47104,-0.95454,12.16015,5.6575
10.48108,-4.40264,10.22773,3.88639
10.49112,-6.54305,8.10767,2.94367
10.50115,-7.53859,6.52839,3.1189
10.51119,-8.05993,5.16744,4.02765
10.52123,-8.19416,4.36837,4.85739
10.53127,-8.42879,4.08989,4.38004
10.5413,-9.93923,3.11935,2.40393
10.55134,-11.438,1.90204,0.15368
10.56138,-12.26445,1.51762,-0.24615
10.57142,-11.54679,1.55668,0.92012
10.58146,-9.84361,1.48141,1.11854
10.59149,-7.9706,2.13862,0.98911
10.60153,-6.24004,3.36744,1.88528
10.61157,-6.05972,3.6941,2.2905
10.62161,-7.42472,2.81408,1.53468
10.63164,-8.92693,1.69674,0.63102
10.64168,-10.3419,1.18378,0.35644
10.65172,-10.5915,1.58466,0.03277
10.66176,-9.40113,3.3049,-1.88588
10.67179,-8.528,4.44379,-4.85828
10.68183,-8.87605,4.63054,-6.8148
10.69187,-11.28821,3.62557,-7.77203
10.70191,-14.86231,1.80987,-8.75634
10.71194,-18.39824,-0.4549,-9.87728
10.72198,-21.0793,-2.44074,-10.25272
10.73202,-21.29972,-2.97135,-10.65405
10.74206,-20.1279,-2.49955,-11.97939
10.75209,-18.67193,-1.40525,-12.21207
10.76213,-16.85712,-0.22835,-11.79653
10.77217,-15.76731,0.21099,-13.1292
10.78221,-15.88059,-0.52672,-16.31648
10.79225,-15.98279,-0.75657,-19.42805
10.80228,-15.3175,0.19887,-22.51208
10.81232,-13.57737,2.10675,-24.58277
10.82236,-10.90963,4.26183,-23.94381
10.83239,-8.63199,4.31226,-23.05257
10.84243,-7.64214,4.21888,-23.00065
10.85247,-6.40748,4.85379,-24.47278
10.86251,-4.57412,5.12284,-26.89586
10.87255,-1.81929,6.24228,-27.83768
10.88258,1.71335,6.83784,-27.53078
10.89262,4.69159,7.33613,-25.23698
10.90266,6.90233,7.87588,-22.38504
10.9127,8.15555,6.81809,-21.18928
10.92273,8.91212,6.32443,-20.45456
10.93277,10.47643,7.2242,-20.61692
10.94281,12.82709,8.01429,-21.57939
10.95285,14.66134,9.24296,-21.36062
10.96288,16.03128,10.10578,-21.11701
10.97292,16.36407,9.23503,-20.59777
10.98296,14.5349,7.60683,-17.33222
10.993,12.01425,5.23537,-13.24861
11.00303,9.02943,2.19473,-9.50947
11.01307,5.85293,-0.34477,-5.3253
11.02311,2.91853,-2.36353,-2.34871
11.03315,0.80251,-4.23026,-1.06362
11.04319,-0.2686,-4.7079,-1.25785
11.05322,-0.84351,-4.23504,-2.09163
11.06326,-1.32953,-3.96061,-2.87618
11.0733,-2.0228,-3.61435,-3.43762
11.08333,-2.54055,-3.0957,-3.92918
11.09337,-2.40782,-2.30607,-5.11985
11.10341,-1.93751,-1.35886,-6.76362
11.11345,-1.33267,-0.3515,-8.02462
11.12349,-0.75791,0.36227,-8.99457
11.13352,-0.33878,0.84949,-9.38632
11.14419,-0.33878,0.84949,-9.38632
11.15423,0.17747,1.42889,-8.85002
11.16426,0.51625,1.56521,-8.62511
11.1743,0.72948,1.25501,-9.33993
11.18434,0.73951,1.02981,-9.90541
11.19438,0.83064,0.99419,-9.82027
11.20441,0.74594,0.79383,-9.68739
11.21445,0.54303,0.59541,-9.32676
11.22449,0.27204,0.268,-8.8967
11.23453,-0.44816,-0.01706,-8.58591
11.24456,-0.70958,-0.39115,-8.20343
11.2546,-0.32696,-0.49395,-8.88024
11.26464,0.17193,-0.14769,-9.98203
11.27468,0.44487,0.00075,-10.65584
11.28471,0.29913,0.00195,-10.81461
11.29475,-0.09921,-0.19004,-10.3425
11.30479,-0.12091,-0.13647,-9.40008
11.31483,-0.10834,-0.08051,-9.39589
11.32486,-0.02918,-0.28072,-9.96422
11.3349,0.06554,-0.4739,-10.24718
11.34494,-0.13946,-0.72559,-9.90347
11.35498,-0.19782,-0.80819,-9.04903
11.36501,-0.25379,-0.60543,-8.33885
11.37505,-0.31693,-0.57266,-8.37492
11.38509,-0.28461,-0.51984,-8.82563
11.39513,-0.21668,-0.40088,-9.24641
11.40516,-0.54513,-0.29299,-9.23159
11.4152,-0.65451,-0.14545,-9.08031
11.42524,-0.23553,0.1634,-9.73078
11.43528,0.05058,0.24211,-11.15429
11.44531,0.1242,0.17852,-12.14504
11.45535,0.06375,0.20575,-12.04239
11.46539,0.21817,0.3904,-10.95811
11.47543,0.54797,0.45804,-10.18134
11.48547,0.63791,0.25394,-10.21606
11.4955,0.40028,-0.12899,-10.1791
11.50554,0.25977,-0.57311,-9.80171
11.51558,0.27234,-0.59406,-9.05966
11.52562,0.33294,-0.32277,-8.40694
11.53565,0.42841,-0.21608,-8.72253
11.54569,0.3509,-0.24556,-9.58803
11.55573,0.11253,-0.33145,-9.97454
11.56577,-0.08634,-0.40731,-9.75712
11.5758,-0.01062,-0.33983,-9.73423
11.58584,0.19573,-0.20231,-9.77822
11.59588,0.21368,-0.11762,-9.77104
11.60592,-0.01811,-0.21338,-9.8047
11.61595,-0.1845,-0.31035,-9.85917
11.62599,-0.20964,-0.34566,-9.53221
11.63603,-0.08754,-0.12959,-9.01028
11.64607,0.04235,-0.06345,-9.14854
11.6561,0.05911,-0.07781,-9.68874
11.66614,-0.00928,-0.00359,-10.08094
11.67618,0.00524,0.02349,-10.18838
11.68622,0.10729,0.16236,-10.20858
11.69625,0.2472,0.17567,-10.38335
11.70629,0.22401,0.04669,-10.34939
11.71633,0.02065,-0.02574,-9.99609
11.72637,-0.08305,-0.06135,-9.59416
11.73641,0.11702,-0.063,-9.71238
11.74644,0.38711,0.12839,-10.03185
11.75648,0.53615,0.21323,-10.38186
11.76652,0.52568,0.21413,-10.42929
11.77656,0.45295,0.20366,-10.04427
11.78659,0.42407,0.05327,-9.36118
11.79663,0.38801,0.02963,-8.86393
11.80667,0.38217,0.08095,-8.89401
11.81671,0.517,0.17732,-9.56678
11.82674,0.67277,0.31738,-10.21351
11.83678,0.70345,0.39789,-10.38111
11.84682,0.79921,0.38801,-10.04053
11.85686,0.76315,0.28865,-9.57022
11.86689,0.59975,0.21473,-9.31374
11.87693,0.61067,0.23358,-9.50857
11.88697,0.84066,0.36123,-9.79543
11.89701,1.04058,0.5387,-10.04143
11.90704,0.99554,0.50443,-10.13241
11.91708,0.89498,0.32112,-9.83224
11.92712,0.67277,0.23089,-9.21768
11.93716,0.49216,0.17807,-8.52994
11.9472,0.3904,0.10415,-8.47757
11.95723,0.27967,0.14844,-8.9386
11.96727,0.29329,0.28177,-9.44857
11.97731,0.15293,0.33534,-9.63502
11.98734,-0.21473,0.24406,-9.25269
11.99738,-0.60903,0.09023,-8.66132
12.00742,-0.93389,-0.05133,-8.26688
12.01746,-1.18229,-0.08918,-8.27077
12.0275,-1.50131,-0.06524,-8.45482
12.03753,-1.89711,-0.12465,-8.58665
12.04757,-2.55102,-0.24376,-8.56481
12.05761,-3.31417,-0.48378,-8.4222
12.06765,-4.22262,-0.65676,-8.29247
12.07768,-5.37618,-0.94197,-8.27391
12.08772,-6.55443,-1.32998,-8.55688
12.09776,-7.69167,-1.54875,-9.05607
12.1078,-8.81291,-1.77859,-10.03141
12.11783,-9.84526,-2.11543,-11.48229
12.12787,-10.85785,-2.2501,-12.80135
12.13791,-11.62145,-2.17558,-13.49986
12.14795,-11.79533,-2.14341,-14.15108
12.15798,-11.55098,-1.83785,-15.40923
12.16802,-11.21923,-1.45193,-17.3231
12.17806,-10.73201,-1.02726,-19.18623
12.1881,-9.30761,0.10579,-21.40551
12.19814,-7.24231,1.54665,-23.86869
12.20817,-4.71643,2.94547,-26.01944
12.21821,-2.03687,3.81247,-27.03936
12.22825,0.13078,4.16726,-27.48738
12.23828,1.96624,4.33081,-27.70031
12.24832,3.83177,4.35341,-27.93839
12.25836,5.68668,4.11563,-27.94587
12.2684,7.83727,4.52639,-27.58719
12.27844,9.70804,5.21697,-27.16731
12.28847,11.31335,5.8827,-26.56846
12.29851,12.79312,6.86178,-25.35579
12.30855,14.38317,8.15705,-23.80989
12.31859,16.37574,9.87758,-22.66202
12.32862,18.30098,11.8914,-21.89842
12.33866,20.24642,13.98782,-20.48868
12.3487,21.38785,15.43108,-18.25773
12.35874,21.71137,16.36572,-15.19405
12.36877,21.73756,17.18872,-11.93958
12.37881,21.22699,17.40345,-9.28097
12.38885,19.83057,17.17346,-7.48996
12.39889,17.93077,17.17226,-5.91039
12.40892,16.23433,17.1778,-3.9036
12.41896,14.73407,17.26055,-1.6909
12.429,13.11379,17.85865,0.35344
12.43904,11.40583,18.1699,2.66131
12.44907,9.4954,18.0249,4.83075
12.45911,7.17497,18.00874,6.009
12.46915,4.7073,17.79595,7.30157
12.47919,1.95008,17.19531,8.88309
12.48923,-1.49802,16.3937,10.29357
12.49926,-5.90934,14.9063,11.06839
12.5093,-10.54182,12.94156,11.12765
12.51934,-13.7511,11.6445,11.02455
12.52938,-15.38125,11.28417,9.86965
12.53941,-16.8257,10.62876,7.45958
12.54945,-18.60639,9.46069,5.40506
12.55949,-20.35311,7.95429,4.9563
12.56953,-21.49978,6.71708,5.10982
12.57956,-22.15071,5.85412,4.30672
12.5896,-22.62132,5.34565,2.38567
12.59964,-22.89605,4.86921,0.46133
12.60968,-23.08504,3.91407,-1.32923
12.61971,-23.85343,2.869,-1.79131
12.62975,-24.82323,1.31442,-1.01798
12.63979,-25.3103,-0.59017,-0.44801
12.64983,-26.6949,-0.49306,-1.37562
12.65986,-28.39014,1.26085,-4.91305
12.6699,-28.71216,1.7156,-8.83715
12.67994,-28.05959,2.57003,-12.99947
12.68998,-26.80309,3.51364,-16.65676
12.70001,-24.79705,3.9413,-18.70006
12.71005,-22.27116,5.15741,-18.65861
12.72009,-19.33557,6.93151,-17.29152
12.73013,-15.43691,9.07642,-17.61654
12.74017,-11.32502,12.30455,-20.24926
12.7502,-6.75808,14.9687,-26.56741
12.76024,-1.43981,17.33686,-35.10393
12.77028,3.62288,19.79765,-42.14708
12.78032,8.31761,20.73917,-45.60595
12.79035,12.03206,19.53085,-46.86814
12.80039,14.64922,17.81795,-45.63992
12.81043,16.58344,14.88535,-41.90272
12.82047,17.92524,11.48319,-37.69102
12.8305,18.87618,8.32838,-32.61471
12.84054,19.82638,6.55413,-25.15303
12.85058,20.37286,5.42795,-17.80179
12.86062,20.12745,4.38229,-13.73972
12.87065,19.13641,3.66373,-12.94096
12.88069,17.43413,3.31896,-13.18098
12.89073,15.03514,2.9543,-12.21028
12.90077,12.42321,2.81798,-10.2192
12.9108,9.75996,2.70006,-7.77337
12.92084,6.94393,2.19129,-5.71182
12.93088,4.20736,1.33671,-4.28038
12.94092,2.16376,0.826,-3.41563
12.95096,0.89932,0.73577,-3.19237
12.96099,0.0226,0.81687,-3.04587
12.97103,-0.9493,0.96022,-2.43236
12.98107,-2.10376,0.76031,-2.2308
12.9911,-2.67193,0.58658,-3.62377
13.00114,-2.36891,0.84246,-5.24794
13.01118,-1.69046,1.43293,-6.22837
13.02122,-1.13051,2.01322,-7.1205
13.03126,-1.03175,2.18172,-7.64977
13.04129,-1.13949,2.15688,-7.72414
13.05133,-1.30828,1.88244,-7.49041
13.06137,-1.33133,1.35153,-7.60383
13.07141,-1.34704,0.79009,-7.84475
13.08144,-1.51209,0.19917,-8.02252
13.09148,-1.57553,-0.33609,-8.09285
13.10152,-1.51987,-0.73143,-7.8886
13.11156,-1.3195,-0.94885,-7.58304
13.12159,-1.20922,-1.23242,-7.74644
13.13163,-1.14592,-1.3834,-8.07639
13.14167,-1.20413,-1.55159,-8.44659
13.15171,-1.16238,-1.74268,-9.11128
13.16174,-0.82495,-1.75884,-9.81847
13.17178,-0.53466,-1.67908,-10.36016
13.18182,-0.39669,-1.55054,-10.2795
13.19186,-0.13138,-1.29661,-9.85738
13.20189,0.25319,-1.05195,-10.07959
13.21193,0.52912,-1.03804,-10.79082
13.22197,0.62309,-1.10672,-11.561
13.23201,0.52253,-1.06916,-11.92477
13.24205,0.56413,-0.84051,-11.61562
13.25208,0.74849,-0.58942,-10.82434
13.26212,0.9285,-0.48438,-10.51309
13.27216,0.95948,-0.52209,-10.75835
13.2822,0.8474,-0.53885,-11.05986
13.29223,0.60334,-0.46388,-10.91083
13.30227,0.17104,-0.58059,-9.93145
13.31231,-0.29628,-0.84815,-9.74515
13.32235,-0.39265,-0.94855,-10.45967
13.33238,-0.08155,-0.76959,-10.91771
13.34242,0.26531,-0.45535,-10.92893
13.35246,0.42976,-0.23613,-10.47807
13.3625,0.42826,-0.27668,-9.85648
13.37253,0.46193,-0.35928,-9.6015
13.38257,0.56174,-0.3904,-9.76041
13.39261,0.56264,-0.32711,-9.83703
13.40265,0.50952,-0.24361,-9.74769
13.41268,0.6192,-0.19408,-9.75054
13.42272,1.02292,0.05297,-9.50019
13.43276,1.19216,0.02484,-9.58324
13.4428,0.83019,-0.1649,-9.98577
13.45283,0.56174,-0.23523,-9.84451
13.46287,0.61486,-0.06375,-9.32212
13.47291,0.76465,0.02035,-8.90314
13.48295,0.69866,-0.05267,-9.01507
13.49299,0.61441,-0.10116,-9.32601
13.50302,0.73741,0.0226,-9.48792
13.51306,0.87807,0.07706,-9.5192
13.5231,0.82435,-0.01781,-9.477
13.53314,0.68968,-0.14171,-9.46922
13.54317,0.61845,-0.2496,-9.46622
13.55321,0.66215,-0.26366,-9.39215
13.56325,0.69282,-0.20785,-9.23922
13.57329,0.79368,-0.16206,-9.10051
13.58332,0.94451,-0.14889,-9.01432
13.59336,0.95618,-0.13931,-9.21438
13.6034,0.93568,-0.18839,-9.50902
13.61344,0.87478,-0.21877,-9.78555
13.62347,0.79892,-0.23224,-9.87429
13.63351,0.68714,-0.35569,-9.64579
13.64355,0.64973,-0.23837,-9.46203
13.65359,0.65661,-0.18465,-9.81428
13.66362,0.68265,-0.1649,-10.22848
13.67366,0.74295,-0.08185,-10.41253
13.6837,0.74699,-0.10071,-10.20259
13.69374,0.57147,-0.23613,-9.62005
13.70377,0.37664,-0.34895,-9.33828
13.71381,0.40118,-0.37754,-9.60359
13.72385,0.40851,-0.31304,-10.05789
13.73389,0.41016,-0.27264,-10.06792
13.74393,0.34656,-0.29239,-9.61616
13.75396,-0.02529,-0.52448,-8.98963
13.764,-0.29808,-0.71661,-8.47383
13.77404,-0.36841,-0.7844,-8.39811
13.78408,-0.31903,-0.66679,-8.50765
13.79411,-0.25558,-0.47211,-8.5048
13.80415,-0.41659,-0.35359,-8.31147
13.81419,-0.78919,-0.27548,-7.98885
13.82423,-0.95244,-0.05791,-7.81288
13.83426,-1.00601,0.23284,-7.85957
13.8443,-1.06003,0.60394,-7.85897
13.85434,-1.18992,0.82615,-7.95758
13.86438,-1.55907,0.86505,-7.90446
13.87441,-1.97926,0.92985,-7.27673
13.88445,-2.39645,1.11495,-6.381
13.89449,-2.72325,1.26908,-5.52028
13.90453,-3.28469,1.3843,-4.55332
13.91456,-4.44947,0.91818,-3.78254
13.9246,-6.15325,-0.22296,-3.49359
13.93464,-8.16064,-1.10867,-3.69455
13.94468,-9.8487,-1.53259,-4.41102
13.95472,-10.65824,-1.25381,-5.21831
13.96475,-10.99148,-0.44667,-6.76152
13.97479,-11.58524,-0.05237,-8.94369
13.98483,-12.2019,-0.16146,-11.22881
13.99487,-12.63899,-0.31963,-13.6477
14.0049,-13.15255,-0.42258,-15.87251
14.01494,-13.55522,-0.61097,-17.82109
14.02498,-13.19624,-0.54603,-19.24908
14.03502,-11.9945,0.21383,-20.18955
14.04505,-10.27666,1.1965,-21.13467
14.05509,-8.28124,1.88439,-22.59184
14.06513,-6.34897,2.5172,-24.54491
14.07517,-4.45905,3.25043,-26.57669
14.0852,-2.66804,4.10291,-28.64752
14.09524,-0.93434,4.94223,-30.30506
14.10528,0.76764,5.49754,-31.80158
14.11532,2.14281,5.42332,-33.41093
14.12535,3.22439,5.20559,-34.34542
14.13539,4.2521,5.37962,-34.67388
14.14543,5.39533,5.76569,-34.49476
14.15547,6.25455,6.16267,-33.34629
14.1655,7.02264,6.59258,-31.39995
14.17554,8.11814,7.06574,-29.48953
14.18558,9.20765,7.63227,-28.00393
14.19562,10.18149,8.60341,-26.37916
14.20566,11.24796,9.94776,-24.45019
14.21569,12.16374,11.61517,-22.30753
14.22573,13.16048,13.10766,-19.89193
14.23577,13.87829,13.94189,-16.93404
14.24581,14.0812,14.50976,-13.30069
14.25584,13.80153,14.90495,-9.57262
14.26588,13.29784,14.89014,-6.25545
14.27592,13.07324,15.21321,-4.5198
14.28596,12.38984,15.30119,-3.54387
14.29599,10.87222,14.70998,-1.12064
14.30603,9.07103,14.04888,1.50939
14.31607,7.14265,12.95847,4.05353
14.32611,5.7609,11.86297,6.22911
14.33615,4.56679,11.33131,7.31503
14.34618,3.47668,10.20065,7.82605
14.35622,2.7237,9.34861,8.38824
14.36626,2.17872,9.12296,8.86797
14.3763,1.86852,9.09497,9.36612
14.38633,1.6912,9.34786,9.87608
14.39637,1.16194,10.02228,10.3844
14.40641,0.2897,10.66003,11.03981
14.41645,-0.81672,11.02799,11.48244
14.42648,-1.97432,11.32966,10.84439
14.43652,-3.22529,11.84232,9.47071
14.44656,-4.69712,12.06992,7.81138
14.4566,-6.81884,11.60095,6.45028
14.46663,-18.04944,7.97479,4.7875
14.4773,-18.04944,7.97479,4.78751
14.48734,-22.01902,6.52644,2.78176
14.49737,-24.91047,5.63445,-0.54633
14.50741,-26.60856,4.61453,-3.97856
14.51745,-28.02099,3.27632,-6.72831
14.52749,-28.75451,1.72652,-9.38722
14.53752,-29.88053,0.89079,-12.43264
14.54756,-30.85662,0.27025,-16.78186
14.5576,-30.73422,-0.50458,-21.17956
14.56764,-28.87078,-0.34028,-23.86765
14.57767,-25.59461,0.09876,-25.91873
14.58771,-21.54198,0.07422,-26.83406
14.59775,-17.15954,1.16478,-25.2714
14.60779,-12.48247,3.10528,-23.08759
14.61783,-7.83892,5.14379,-22.62087
14.62786,-2.98347,6.99511,-22.82018
14.6379,1.80882,7.98391,-23.38731
14.64794,5.53031,8.68646,-24.15196
14.65798,9.21094,9.9289,-24.20014
14.66801,13.12337,10.96739,-24.8385
14.67805,15.42225,10.97337,-26.15396
14.68809,16.41794,10.4034,-26.26664
14.69813,16.30002,9.09871,-25.86172
14.70816,15.16951,7.33419,-24.96928
14.7182,13.85734,5.55709,-22.36648
14.72824,12.34286,3.95866,-19.83701
14.73828,10.23012,2.188,-17.9803
14.74831,7.97658,0.52224,-16.10759
14.75835,6.04027,-0.46328,-14.03556
14.76839,4.62724,-0.81792,-12.41453
14.77843,3.61689,-0.58538,-11.55457
14.78846,2.70575,-0.35285,-11.02769
14.7985,1.67953,-0.14709,-10.61634
14.80854,0.82765,0.32412,-10.08752
14.81858,0.22446,0.79248,-9.72495
14.82861,-0.43769,1.14877,-9.68559
14.83865,-0.54169,1.56895,-9.52398
14.84869,-0.10534,2.17229,-8.80722
14.85873,0.27264,2.71996,-7.88515
14.86877,0.52328,3.03031,-6.87211
14.8788,0.27713,2.91793,-6.19066
14.88884,-0.36078,2.50374,-5.87178
14.89888,-0.92401,2.13638,-5.94555
14.90892,-1.16119,1.87705,-6.54979
14.91895,-0.87134,1.91536,-7.35155
14.92899,-0.43215,1.95591,-7.98765
14.93903,-0.29538,1.64137,-8.15959
14.94907,-0.42632,1.14967,-7.66848
14.9591,-0.91204,0.60693,-7.17078
14.96914,-1.50461,0.00404,-7.08339
14.97918,-1.86538,-0.45834,-7.23603
14.98922,-1.68357,-0.65556,-7.71232
14.99925,-1.12064,-0.6804,-8.33646
15.00929,-0.6816,-0.65347,-8.68003
15.01933,-0.43993,-0.71033,-9.08839
15.02937,-0.53765,-0.89379,-9.37884
15.0394,-0.57521,-1.06437,-9.40068
15.04944,-0.58568,-1.05599,-9.4354
15.05948,-0.47046,-0.95559,-9.537
15.06952,-0.14769,-0.8055,-9.83553
15.07955,0.21578,-0.55291,-10.33936
15.08959,0.52418,-0.44053,-10.97801
15.09963,0.66828,-0.44876,-11.31694
15.10967,0.51535,-0.58149,-11.05223
15.11971,0.21069,-0.60139,-10.68921
15.12974,-0.10729,-0.69626,-10.6548
15.13978,0.24541,-0.2285,-11.16222
15.15044,0.24541,-0.2285,-11.16222
15.16048,0.46687,-0.11268,-11.38353
15.17052,0.42422,-0.17612,-11.31185
15.18056,0.30376,-0.2291,-10.93312
15.1906,0.23119,-0.28611,-10.38246
15.20063,0.27922,-0.19243,-9.85902
15.21067,0.37664,-0.03921,-9.59312
15.22071,0.40178,0.03801,-9.59716
15.23075,0.3292,-0.07961,-9.59207
15.24078,0.26456,-0.07168,-9.48253
15.25082,0.33758,-0.01781,-9.35849
15.26086,0.43365,0.10205,-9.21723
15.2709,0.64419,0.26291,-9.12939
15.28093,0.69896,0.30406,-9.13119
15.29097,0.63252,0.20755,-9.17683
15.30101,0.52792,0.13827,-9.2096
15.31105,0.61441,0.23314,-9.17997
15.32108,0.84665,0.33653,-9.31
15.33112,1.10313,0.46492,-9.50723
15.34116,1.21296,0.45295,-9.48598
15.3512,1.06243,0.32292,-9.5578
15.36123,0.84396,0.19588,-9.61661
15.37127,0.7232,0.09412,-9.6208
15.38131,0.72215,0.07183,-9.70205
15.39135,0.84426,0.06,-9.51785
15.40138,0.88271,0.04968,-9.20436
15.41142,0.82076,0.01631,-9.13134
15.42146,0.81104,0.05118,-9.27768
15.4315,0.83049,0.06659,-9.57381
15.44154,0.83423,0.1236,-9.90616
15.45157,0.90606,0.20007,-10.03694
15.46161,0.83857,0.13093,-9.92157
15.47165,0.67307,0.08679,-9.83792
15.48169,0.69611,0.14979,-9.72315
15.49172,0.86042,0.25423,-9.62065
15.50176,1.05016,0.37365,-9.7664
15.5118,1.05524,0.39385,-9.8903
15.52184,0.83977,0.29239,-9.86591
15.53187,0.50368,0.16071,-9.92067
15.54191,0.3304,0.06764,-9.89883
15.55195,0.39923,0.06509,-9.94731
15.56199,0.51386,0.2282,-9.90152
15.57202,0.52493,0.33758,-9.58324
15.58206,0.38442,0.31768,-9.18805
15.5921,0.23164,0.19692,-9.03931
15.60214,0.04534,-0.02903,-9.1668
15.61217,-0.19707,-0.17418,-9.13478
15.62221,-0.28102,-0.23463,-8.98185
15.63225,-0.36661,-0.26112,-8.76861
15.64229,-0.42213,-0.08784,-8.57079
15.65232,-0.44368,0.09861,-8.52635
15.66236,-0.56204,0.15233,-8.73928
15.6724,-0.89483,0.10834,-9.00429
15.68244,-1.22912,0.05252,-9.08151
15.69248,-1.59499,0.09113,-8.92095
15.70251,-1.83531,0.16236,-8.55089
15.71255,-2.15119,0.28356,-8.14522
15.72259,-2.60654,0.46253,-8.04452
15.73263,-2.98318,0.52777,-8.44929
15.74266,-3.56182,0.47076,-8.86438
15.7527,-4.19225,0.27294,-8.99936
15.76274,-4.80486,-0.1649,-8.61868
15.77278,-5.64119,-0.51386,-7.76604
15.78281,-6.51387,-0.73607,-7.13457
15.79285,-7.13771,-0.83513,-6.76616
15.80289,-7.38521,-0.45789,-6.76975
15.81293,-7.6399,-0.34312,-7.50911
15.82296,-8.04931,-0.60603,-8.65549
15.833,-8.54401,-0.89124,-9.90406
15.84304,-9.05188,-0.79622,-10.98714
15.85308,-9.4743,-0.75073,-11.80626
15.86311,-9.868,-1.00751,-12.47678
15.87315,-10.22145,-1.2583,-13.57782
15.88319,-10.65524,-1.41123,-15.02586
15.89323,-10.68008,-1.22194,-16.23074
15.90326,-9.79258,-0.51311,-17.61339
15.9133,-8.6908,0.372,-19.62168
15.92334,-7.83966,0.97145,-21.91143
15.93338,-7.10659,1.49219,-24.41218
15.94342,-6.56161,2.11363,-26.21576
15.95345,-5.76344,2.9317,-27.15623
15.96349,-4.91904,3.50586,-27.91894
15.97353,-4.36508,3.95911,-28.70872
15.98357,-3.73166,4.46279,-29.59712
15.9936,-2.94577,5.05072,-30.29683
16.00364,-1.77934,5.93657,-30.37868
16.01368,-0.12989,6.89515,-29.71099
16.02372,1.86613,7.79402,-28.93692
16.03375,3.76024,8.8358,-27.9731
16.04379,5.27906,9.81054,-26.59225
16.05383,6.77724,10.57384,-24.93381
16.06387,8.16692,11.26143,-22.73459
16.0739,8.8569,11.55068,-20.23205
16.08394,9.34232,11.66904,-17.51448
16.09398,10.44411,11.81449,-15.29192
16.10402,11.83858,12.21597,-13.25954
16.11405,13.34049,13.20297,-10.68667
16.12409,14.59326,13.91899,-7.71876
16.13413,15.35417,14.04439,-5.21397
16.14417,15.58131,13.6679,-3.38735
16.1542,15.17236,13.18532,-1.83067
16.16424,14.68573,12.76454,-0.44846
16.17428,14.25149,12.21477,0.50218
16.18432,13.2953,11.3946,0.70794
16.19435,12.11975,10.3868,0.62623
16.20439,10.79351,9.46578,0.77348
16.21443,9.63322,8.86064,1.06318
16.22447,8.61239,8.4864,1.3216
16.23451,7.70394,8.10362,1.66277
16.24454,7.13532,7.46976,1.52571
16.25458,6.31381,7.01007,0.83617
16.26462,5.17626,6.91296,0.26321
16.27466,4.09408,7.2447,-0.26456
16.28469,3.0987,8.1943,-0.42916
16.29473,2.14131,9.35205,0.63057
16.30477,1.47019,10.04921,1.4024
16.31481,0.29149,10.78992,1.27252
16.32484,-1.43966,11.60125,1.14563
16.33488,-3.6935,11.9339,1.40166
16.34492,-6.49457,11.39865,1.36799
16.35496,-9.65477,9.61691,1.47124
16.36499,-13.17275,7.49894,2.39046
16.37503,-16.54528,5.31602,3.4698
16.38507,-19.12099,3.5527,4.71792
16.39511,-21.0567,2.78909,5.38217
16.40514,-22.26623,2.58918,4.54808
16.41518,-22.87914,2.69482,2.10405
16.42522,-23.207,3.22349,-0.79772
16.43526,-23.69422,3.34709,-3.63769
16.4453,-24.90478,2.21643,-6.70586
16.45533,-26.32634,0.56189,-8.85151
16.46537,-28.0777,-1.14802,-10.30883
16.47541,-29.36084,-2.36592,-11.59661
16.48545,-28.82858,-2.69557,-13.14252
16.49548,-26.49723,-1.37248,-14.69935
16.50552,-22.89934,1.10537,-17.25426
16.51556,-18.88965,3.26045,-19.91527
16.5256,-15.56934,4.80561,-21.8447
16.53563,-13.00755,6.50056,-22.74866
16.54567,-10.4067,7.70245,-23.34661
16.55571,-7.1208,7.76365,-23.95818
16.56575,-3.66433,7.78849,-24.00576
16.57578,-0.43021,8.78567,-23.91254
16.58582,3.43777,9.88461,-24.34125
16.59586,7.61596,10.1167,-26.68188
16.6059,10.85381,10.11565,-30.14719
16.61593,13.32702,10.17551,-32.43365
16.62597,15.36883,9.89628,-32.99913
16.63601,17.0753,9.33245,-31.9792
16.64605,18.19444,8.53204,-29.54969
16.65608,18.06156,7.39704,-26.82508
16.66612,16.49321,6.09489,-24.22932
16.67616,13.92662,4.60525,-21.54452
16.6862,11.08246,3.12952,-18.61896
16.69624,8.45258,1.9414,-15.90767
16.70627,5.97638,1.13904,-13.37057
16.71631,3.53788,0.50458,-11.08695
16.72635,1.27072,-0.13303,-9.4137
16.73639,-0.69596,-0.62399,-8.12442
16.74642,-2.07098,-0.63805,-6.94019
16.75646,-2.67417,-0.17014,-5.60273
16.7665,-2.88831,0.36646,-4.5412
16.77654,-2.75707,1.11196,-3.95462
16.78657,-2.36218,1.85416,-3.6347
16.79661,-2.07173,2.36353,-3.54207
16.80665,-2.11049,2.83399,-3.88519
16.81669,-2.59322,2.87289,-4.87684
16.82672,-3.11097,2.70021,-5.72738
16.83676,-3.40171,2.52648,-6.03758
16.8468,-3.4499,2.20521,-6.16851
16.85684,-3.21451,2.04824,-6.08112
16.86687,-2.80526,1.88289,-5.64687
16.87691,-2.46752,1.60172,-5.30405
16.88695,-2.40737,1.16598,-5.40596
16.89699,-2.29784,0.89812,-6.03458
16.90703,-2.03432,0.80804,-7.04928
16.91706,-1.54202,0.76046,-7.80839
16.9271,-0.9496,0.74939,-8.40574
16.93714,-0.46328,0.76375,-8.93037
16.94718,-0.19962,0.6008,-9.31943
16.95721,-0.04265,0.37559,-9.64414
16.96725,0.07661,0.20276,-9.71836
16.97729,0.13901,-0.03606,-9.78166
16.98733,0.16445,-0.26561,-9.9934
16.99736,0.17119,-0.45789,-10.41089
17.0074,0.21653,-0.68175,-10.84768
17.01744,0.36512,-0.73637,-10.99971
17.02748,0.56638,-0.63521,-11.00106
17.03751,0.7443,-0.55605,-10.97966
17.04755,0.79921,-0.57655,-11.14621
17.05759,0.81283,-0.5167,-11.30722
17.06763,0.87718,-0.42093,-11.19918
17.07766,0.84695,-0.4558,-10.95587
17.0877,0.70958,-0.44607,-10.66991
17.09774,0.57132,-0.476,-10.35492
17.10778,0.29075,-0.50937,-10.16413
17.11781,-0.03127,-0.43889,-10.00357
17.12785,-0.06734,-0.26381,-9.85588
17.13789,0.09188,-0.00299,-10.06822
17.14793,0.31993,0.32307,-10.54302
17.15797,0.45355,0.38771,-10.87282
17.168,0.17612,0.40148,-11.003
17.17804,-0.14515,0.44068,-10.61828
17.18808,-0.24226,0.30586,-9.85573
17.19812,-0.25438,0.23149,-9.41071
17.20815,-0.19722,0.20246,-9.44647
17.21819,-0.19977,0.13991,-9.57441
17.22823,-0.40447,0.09472,-9.16261
17.23827,-0.28491,0.05866,-8.85196
17.2483,-0.1447,0.15757,-9.04829
17.25834,-0.09053,0.07961,-9.15019
17.26838,-0.18465,-0.082,-8.96269
17.27842,-0.37903,-0.03531,-8.75215
17.28845,-0.26695,0.04145,-8.78268
17.29849,-0.07572,0.10011,-9.27454
17.30853,0.09547,0.18271,-9.89509
17.31857,0.00075,0.15862,-10.29357
17.3286,-0.20904,-0.01466,-10.40535
17.33864,-0.0431,0.07482,-10.36555
17.34868,0.26635,0.2487,-10.04697
17.35872,0.32576,0.17223,-9.52817
17.36876,0.11866,-0.05028,-9.41699
17.37879,-0.15458,-0.20066,-9.52758
17.38883,-0.15338,-0.13901,-9.38916
17.39887,0.12555,-0.04354,-9.34217
17.40891,0.35554,0.08155,-9.68305
17.41894,0.44098,0.11702,-10.05969
17.42898,0.47585,0.09936,-10.08318
17.43902,0.52044,0.19049,-9.82565
17.44906,0.56997,0.31349,-9.45814
17.45909,0.48542,0.22775,-9.17862
17.46913,0.42033,0.13856,-9.26825
17.47917,0.46522,0.17163,-9.52758
17.48921,0.61007,0.15577,-9.67721
17.49924,0.59032,0.10849,-9.66554
17.50928,0.43889,0.07302,-9.46548
17.51932,0.37469,-0.0187,-9.10231
17.52936,0.54558,0.05222,-9.01207
17.53939,0.77452,0.2252,-9.21618
17.54943,0.84575,0.33399,-9.50199
17.55947,0.659,0.33848,-9.77388
17.56951,0.49904,0.28012,-9.93609
17.57955,0.44547,0.28656,-9.98038
17.58958,0.42991,0.34417,-10.01644
17.59962,0.41554,0.37843,-9.91633
17.60966,0.43964,0.32995,-9.80964
17.6197,0.52074,0.38292,-9.86755
17.62973,0.58209,0.45355,-9.87129
17.63977,0.57476,0.38502,-9.70819
17.64981,0.4344,0.36796,-9.57516
17.65985,0.28282,0.32397,-9.39141
17.66988,0.1224,0.27473,-9.2711
17.67992,0.0618,0.1655,-9.34861
17.68996,0.09816,0.15802,-9.54852
17.7,0.16221,0.27623,-9.78765
17.71003,0.15039,0.23074,-9.90721
17.72007,0.01751,0.13288,-9.82236
17.73011,-0.03202,0.18959,-9.68844
17.74015,0.14081,0.37065,-9.80845
17.75018,0.32875,0.39878,-10.09635
17.76022,0.40896,0.39863,-10.45084
17.77026,0.40432,0.40537,-10.70298
17.7803,0.45071,0.31753,-10.76508
17.79033,0.56084,0.40013,-10.66662
17.80037,0.59301,0.42961,-10.38859
17.81041,0.59391,0.3108,-10.03694
17.82045,0.47884,0.21413,-9.92412
17.83049,0.34671,0.12599,-9.92875
17.84052,0.26142,-0.01856,-9.95614
17.85056,0.13303,-0.07437,-9.92486
17.8606,0.06315,-0.03711,-9.85708
17.87064,0.09292,-0.00913,-9.69697
17.88067,0.14051,0.00404,-9.62753
17.89071,0.15188,-0.01272,-9.56319
17.90075,0.20321,-0.03741,-9.56364
17.91079,0.28087,0.0018,-9.70026
17.92082,0.33025,0.04235,-9.82476
17.93086,0.3506,0.13692,-9.75488
17.9409,0.26441,0.1429,-9.47056
17.95094,0.15936,0.01092,-9.22336
17.96097,0.20321,0.08649,-9.23055
17.97101,0.40178,0.18824,-9.54404
17.98105,0.55531,0.31469,-9.86695
17.99109,0.61815,0.50398,-9.97529
18.00112,0.52687,0.55575,-10.06044
18.01116,0.42377,0.58823,-10.11864
18.0212,0.52388,0.68773,-10.16877
18.03124,0.72499,0.73502,-10.33308
18.04127,0.87613,0.76121,-10.47583
18.05131,0.90022,0.71452,-10.22743
18.06135,0.77797,0.57865,-9.79842
18.07139,0.63087,0.51071,-9.38677
18.08143,0.64254,0.41315,-9.38273
18.09146,0.65856,0.39265,-9.69173
18.1015,0.60304,0.36407,-9.87683
18.11154,0.50832,0.31155,-9.87249
18.12158,0.42228,0.34731,-9.67602
18.13161,0.40746,0.29673,-9.30028
18.14165,0.3304,0.19902,-9.23952
18.15169,0.3304,0.20051,-9.48672
18.16173,0.40208,0.21757,-9.67587
18.17176,0.41704,0.18615,-9.71836
18.1818,0.25214,0.16744,-9.58145
18.19184,0.02768,0.20695,-9.30866
18.20188,0.09562,0.28656,-9.20586
18.21191,0.19962,0.36108,-9.56588
18.22195,0.19243,0.43545,-10.10667
18.23199,0.2071,0.4739,-10.30898
18.24203,0.22191,0.47989,-10.12987
18.25206,0.30137,0.53017,-9.71986
18.2621,0.38861,0.54513,-9.29429
18.27214,0.3729,0.45879,-9.18042
18.28218,0.2665,0.40582,-9.30073
18.29222,0.28012,0.38906,-9.39859
18.30225,0.35554,0.39729,-9.55346
18.31229,0.41599,0.4341,-9.78555
18.32233,0.4941,0.48976,-9.86366
18.33237,0.51101,0.45774,-9.86665
18.3424,0.46373,0.4561,-9.81937
18.35244,0.36931,0.43679,-9.86112
18.36248,0.4341,0.44008,-10.0139
18.37252,0.5363,0.51984,-10.18448
18.38255,0.54663,0.47944,-10.20798
18.39259,0.45131,0.36242,-10.1158
18.40263,0.36093,0.30736,-9.95075
18.41267,0.36392,0.31259,-9.72435
18.4227,0.36901,0.31903,-9.67183
18.43274,0.29673,0.27099,-9.66824
18.44278,0.24047,0.21278,-9.72914
18.45282,0.17642,0.21832,-9.85573
18.46348,0.17612,0.20859,-9.99115
18.47352,0.23897,0.22924,-10.01764
18.48356,0.25498,0.2279,-9.98173
18.49359,0.19079,0.17717,-9.77807
18.50363,0.2252,0.15323,-9.61347
18.51367,0.25528,0.23538,-9.6612
18.52371,0.24077,0.26037,-9.63965
18.53375,0.20306,0.20231,-9.59521
18.54378,0.16206,0.23747,-9.46577
18.55382,0.21114,0.26082,-9.39245
18.56386,0.2876,0.29299,-9.44333
18.5739,0.37769,0.35045,-9.54089
18.58393,0.41405,0.41061,-9.63816
18.59397,0.40447,0.49126,-9.78076
18.60401,0.31963,0.50099,-9.9509
18.61405,0.19872,0.48483,-9.89838
18.62408,0.14979,0.45131,-9.77582
18.63412,0.09233,0.41435,-9.71642
18.64416,0.09457,0.41869,-9.65312
18.6542,0.14814,0.42123,-9.62723
18.66423,0.21952,0.42662,-9.69502
18.67427,0.30077,0.43889,-9.90317
18.68431,0.3111,0.43455,-10.09829
18.69435,0.27025,0.38636,-10.1372
18.70438,0.24421,0.33235,-9.99923
18.71442,0.18705,0.34222,-9.78869
18.72446,0.23373,0.42123,-9.78974
18.7345,0.38741,0.53615,-9.96078
18.74453,0.51879,0.61037,-10.11595
18.75457,0.58433,0.60364,-10.21726
18.76461,0.52104,0.56189,-10.17012
18.77465,0.41135,0.43769,-9.83598
18.78469,0.29299,0.2906,-9.46129
18.79472,0.30197,0.29658,-9.25434
18.80476,0.43604,0.32591,-9.4333
18.8148,0.61666,0.39459,-9.81817
18.82484,0.75238,0.54109,-10.00941
18.83487,0.72095,0.54767,-10.00223
18.84491,0.49096,0.41076,-9.66794
18.85495,0.32277,0.3298,-9.2479
18.86499,0.23373,0.27593,-9.08944
18.87502,0.27399,0.26665,-9.03302
18.88506,0.39834,0.34477,-9.32931
18.8951,0.42228,0.38502,-9.82685
18.90514,0.37933,0.4115,-10.07675
18.91517,0.40507,0.48931,-10.02931
18.92521,0.432,0.56039,-9.74485
18.93525,0.44757,0.56907,-9.41774
18.94529,0.3521,0.47345,-9.34861
18.95532,0.18136,0.34851,-9.50154
18.96536,0.12435,0.28775,-9.80007
18.9754,0.17163,0.29583,-9.91289
18.98544,0.2906,0.3111,-9.84152
18.99547,0.40686,0.40178,-9.63023
19.00551,0.44188,0.44921,-9.52264
19.01555,0.40701,0.44592,-9.60165
19.02559,0.31858,0.4356,-9.68574
19.03563,0.20635,0.38292,-9.83777
19.04566,0.14859,0.35943,-9.84436
19.0557,0.34043,0.41973,-9.81473
19.06574,0.34043,0.41973,-9.81473
19.07578,0.63955,0.62938,-9.98651
19.08581,0.65915,0.68549,-10.07839
19.09585,0.64075,0.71257,-10.06687
19.10589,0.54603,0.64105,-9.9919
19.11593,0.40567,0.55366,-10.0127
19.12596,0.34641,0.53271,-10.00163
19.136,0.52179,0.63671,-10.02033
19.14667,0.52179,0.63671,-10.02033
19.1567,0.79697,0.76944,-10.34355
19.16674,0.95274,0.8251,-10.57773
19.17678,0.95544,0.78171,-10.5285
19.18682,0.79098,0.6825,-10.28369
19.19685,0.66484,0.58852,-9.86037
19.20689,0.73607,0.56668,-9.48852
19.21693,0.82854,0.64539,-9.38258
19.22697,0.92446,0.63252,-9.5162
19.237,0.91488,0.60454,-9.63876
19.24704,0.80789,0.57132,-9.42283
19.25708,0.76091,0.5776,-9.04649
19.26712,0.76585,0.6201,-8.8795
19.27715,0.78096,0.67861,-8.84717
19.28719,0.8444,0.77617,-8.91481
19.29723,0.93763,0.86401,-9.11458
19.30727,0.92461,0.89723,-9.1448
19.3173,0.77452,0.89678,-8.86378
19.32734,0.51131,0.8049,-8.51842
19.33738,0.1664,0.64359,-8.19341
19.34742,-0.14111,0.68504,-7.99125
19.35745,-0.61067,0.91488,-8.07998
19.36749,-1.26414,1.06692,-8.35098
19.37753,-2.20461,1.28524,-8.45916
19.38757,-3.49688,1.60157,-8.22049
19.39761,-5.19168,1.70826,-7.95099
19.40764,-7.90895,0.98716,-7.71142
19.41768,-12.06169,-0.61336,-7.8229
19.42772,-17.21192,-2.55012,-8.24234
19.43776,-21.94615,-4.11249,-8.70397
19.44779,-25.46129,-5.14634,-8.64022
19.45783,-27.43516,-5.20619,-8.50016
19.46787,-27.81494,-3.90973,-8.5045
19.47791,-27.05567,-2.17618,-8.70262
19.48794,-25.54104,-0.28536,-9.4755
19.49798,-23.11617,1.90698,-11.74191
19.50802,-19.92963,3.73181,-14.91737
19.51806,-16.43874,4.79723,-18.27943
19.52809,-12.74134,5.73441,-21.65106
19.53813,-9.02614,6.26054,-23.91119
19.54817,-5.57639,6.22657,-26.057
19.55821,-2.60399,6.96937,-29.62914
19.56825,0.45295,8.61374,-34.15942
19.57828,3.62527,10.51578,-38.29929
19.58832,7.06589,12.32789,-41.1267
19.59836,10.84394,13.88936,-43.42334
19.6084,13.90702,15.36614,-45.42848
19.61843,16.06225,16.2903,-45.36429
19.62847,17.68432,16.71138,-43.211
19.63851,18.77922,17.25007,-39.2863
19.64854,19.52172,17.96295,-34.59532
19.65858,19.6335,18.75737,-29.75664
19.66862,19.47863,19.38899,-25.11338
19.67866,19.3242,20.24926,-20.89405
19.6887,18.97839,21.0781,-17.03026
19.69873,18.11064,21.24944,-13.36952
19.70877,16.83722,21.29717,-10.39981
19.71881,15.52056,21.33398,-7.98511
19.72885,13.95296,20.84197,-5.46686
19.73888,12.00393,20.26946,-3.00442
19.74892,9.74066,19.77985,-0.17178
19.75896,7.75527,18.62405,3.44436
19.769,6.32264,17.62626,7.04524
19.77903,5.11955,16.96052,10.10997
19.78907,3.83955,15.96977,12.76439
19.79911,2.26626,14.82864,14.88625
19.80915,1.14518,13.76082,15.88149
19.81919,-0.14186,12.76229,15.80412
19.82922,-1.8986,11.57013,15.1131
19.83926,-3.4674,10.65734,13.43027
19.8493,-4.7076,10.35253,11.28342
19.85933,-5.78275,10.87641,9.61332
19.86937,-6.81674,11.5405,8.08253
19.87941,-8.21286,11.19783,6.25754
19.88945,-10.1589,10.12672,4.14317
19.89949,-12.12828,9.26975,1.90204
19.90952,-13.66984,8.58905,0.02065
19.91956,-14.55345,7.56628,-1.36469
19.9296,-15.47522,6.23944,-2.43984
19.93964,-16.58688,4.94253,-3.53668
19.94967,-17.98195,4.00251,-4.11833
19.95971,-19.90135,3.57065,-5.16773
19.96975,-21.67097,2.63078,-7.80495
19.97979,-22.60231,1.45029,-11.45476
19.98982,-22.46135,0.7208,-15.15096
19.99986,-21.11042,0.42437,-17.30694
20.0099,-19.27048,0.13108,-17.3641
20.01994,-17.69719,-0.55545,-15.89705
20.02997,-16.60214,-1.62117,-14.59431
20.04001,-15.37048,-2.60639,-14.11561
20.05005,-13.88143,-4.0866,-14.35967
20.06009,-11.54454,-5.11746,-15.47058
20.07013,-8.71504,-4.98069,-16.97983
20.08016,-5.70838,-3.7182,-19.53564
20.0902,-2.60863,-1.69869,-22.4208
20.10024,0.66649,0.41644,-25.4556
20.11027,3.57694,2.4759,-28.66383
20.12031,5.83991,3.65161,-30.69336
20.13035,7.39509,3.49883,-31.31421
20.14039,8.47054,2.60714,-30.97918
20.15043,9.27199,2.23065,-29.72222
20.16046,10.14318,1.97507,-27.78725
20.1705,10.12403,1.43936,-25.7661
20.18054,9.14809,0.94646,-23.69332
20.19058,7.71113,0.208,-21.08229
20.20061,6.23151,-0.51924,-18.04929
20.21065,4.64086,-1.17899,-15.38245
20.22069,3.13416,-1.57628,-13.18218
20.23073,3.00577,-2.64799,-10.73395
20.24076,2.51107,-3.49284,-9.02075
20.2508,1.4449,-3.25043,-7.79193
20.26084,0.53211,-3.09855,-7.12769
20.27088,-0.25319,-3.14628,-7.09267
20.28091,-0.87852,-3.2398,-7.06334
20.29095,-1.31995,-3.00323,-6.97536
20.30099,-1.71185,-2.98617,-6.9158
20.31103,-1.8799,-2.87828,-7.08549
20.32107,-1.63,-2.27464,-7.08265
20.3311,-1.19471,-1.56102,-7.39105
20.34114,-0.7419,-1.06811,-7.85358
20.35118,-0.58419,-0.84201,-8.15854
20.36122,-0.40896,-0.74579,-8.43477
20.37125,-0.18765,-0.46298,-8.91271
20.38129,0.25034,-0.29643,-8.51363
20.39133,0.91952,-0.42497,-8.16722
20.40137,1.34644,-0.63431,-8.14283
20.4114,1.19126,-1.08188,-8.80393
20.42144,0.60124,-1.20728,-9.52638
20.43148,0.23897,-1.29032,-9.38377
20.44152,0.3916,-1.51269,-9.30566
20.45155,0.94107,-1.36604,-8.79495
20.46159,1.73774,-1.37322,-8.54416
20.47163,1.91177,-1.61444,-9.2286
20.48167,1.6306,-1.74567,-9.73437
20.4917,1.28853,-1.77216,-10.16219
20.50174,1.07126,-1.9818,-10.04293
20.51178,1.08547,-2.02804,-9.78286
20.52182,1.07365,-1.92853,-9.24461
20.53185,0.88945,-2.33794,-8.70262
20.54189,0.75612,-2.52124,-8.72911
20.55193,0.59795,-2.42518,-9.18057
20.56197,0.58448,-2.39465,-9.76131
20.57201,0.65167,-2.5184,-10.1378
20.58204,0.60798,-2.61133,-10.37438
20.59208,0.34207,-2.55551,-10.47897
20.60212,-0.09068,-2.6438,-10.35941
20.61216,-0.27833,-2.71203,-10.08123
20.62219,-0.18196,-2.61088,-9.85244
20.63223,-0.01601,-2.49835,-9.70834
20.64227,0.20111,-2.44807,-9.56304
20.65231,0.35928,-2.38283,-9.54448
20.66234,0.36482,-2.27374,-9.63187
20.67238,0.3515,-2.20656,-9.5816
20.68242,0.40866,-2.15822,-9.31868
20.69246,0.52792,-2.15089,-9.12355
20.70249,0.54079,-2.14101,-9.19987
20.71253,0.46971,-2.14161,-9.36312
20.72257,0.50892,-2.13787,-9.29713
20.73261,0.6174,-2.13069,-9.10709
20.74264,0.66125,-2.17962,-8.7957
20.75268,0.57311,-2.26656,-8.63214
20.76272,0.5791,-2.26087,-8.70726
20.77276,0.60334,-2.25683,-8.79286
20.78279,0.55231,-2.2935,-9.04948
20.79283,0.35659,-2.29873,-9.35205
20.80287,0.2264,-2.26222,-9.26302
20.81291,0.1643,-2.23214,-8.99172
20.82295,0.14335,-2.27464,-8.80932
20.83298,0.19827,-2.25833,-8.75111
20.84302,0.25468,-2.2495,-8.85855
20.85306,0.31394,-2.24651,-9.15603
20.8631,0.29299,-2.1892,-9.42373
20.87313,0.12465,-2.09238,-9.63008
20.88317,-0.0398,-2.13952,-9.71148
20.89321,-0.09248,-2.16765,-9.60748
20.90325,0.03861,-2.03956,-9.46159
20.91328,0.28207,-1.93197,-9.30866
20.92332,0.42243,-1.96848,-9.29025
20.93336,0.45684,-1.97103,-9.3923
20.9434,0.49889,-1.84892,-9.50363
20.95343,0.60783,-1.81795,-9.50453
20.96347,0.71198,-1.81495,-9.47595
20.97351,0.73607,-1.77395,-9.53057
20.98355,0.6385,-1.84743,-9.61975
20.99358,0.46911,-1.94439,-9.85603
21.00362,0.37679,-1.9839,-9.91529
21.01366,0.48617,-1.91985,-9.72136
21.0237,0.65661,-1.8576,-9.50693
21.03374,0.64913,-1.82423,-9.32347
21.04377,0.4534,-1.83994,-9.30342
21.05381,0.3928,-2.00365,-9.32407
21.06385,0.39729,-2.01771,-9.28726
21.07389,0.43036,-1.80134,-9.28935
21.08392,0.48183,-1.71215,-9.23055
21.09396,0.52583,-1.74837,-9.27589
21.104,0.53391,-1.65275,-9.44468
21.11404,0.52867,-1.50221,-9.69921
21.12407,0.56144,-1.45957,-9.84885
21.13411,0.55261,-1.53528,-9.79213
21.14415,0.49291,-1.61639,-9.68874
21.15419,0.45355,-1.65918,-9.59416
21.16422,0.45041,-1.65215,-9.477
21.17426,0.5378,-1.68686,-9.48762
21.1843,0.47914,-1.71589,-9.6609
21.19434,0.42093,-1.67534,-9.8481
21.20437,0.33743,-1.61668,-9.90257
21.21441,0.39594,-1.62342,-9.78391
21.22445,0.54438,-1.60426,-9.56888
21.23449,0.54064,-1.51957,-9.42867
21.24452,0.62803,-1.50072,-9.32018
21.25456,0.73861,-1.55608,-9.30955
21.2646,0.77108,-1.6722,-9.46473
21.27464,0.73532,-1.68821,-9.59566
21.28467,0.65287,-1.62267,-9.66285
21.29471,0.49934,-1.73206,-9.73228
21.30475,0.4555,-1.85985,-9.75966
21.31479,0.52867,-1.89501,-9.51456
21.32483,0.5791,-1.81181,-9.2298
21.33486,0.46702,-1.7349,-9.17727
21.3449,0.26112,-1.76857,-9.23533
21.35494,0.12779,-1.85416,-9.25688
21.36498,0.13991,-1.87496,-9.22576
21.37501,0.32501,-1.81361,-9.22755
21.38505,0.43574,-1.65604,-9.26002
21.39509,0.51655,-1.44281,-9.59805
21.40513,0.64419,-1.23496,-10.06358
21.41516,0.80685,-1.02352,-10.27756
21.4252,0.99419,-0.79577,-10.34535
21.43524,1.20129,-0.65811,-10.22549
21.44528,1.26788,-0.73322,-9.94881
21.45531,1.19261,-0.89738,-9.64594
21.46535,1.08697,-1.02861,-9.44961
21.47539,1.0322,-1.1549,-9.45186
21.48543,0.98731,-1.22628,-9.49944
21.49546,0.87134,-1.27237,-9.63053
21.5055,0.81747,-1.31247,-9.68155
21.51554,0.8239,-1.35183,-9.76281
21.52558,0.77033,-1.37158,-9.81144
21.53561,0.65047,-1.37517,-9.81608
21.54565,0.55964,-1.41482,-9.86531
21.55569,0.42303,-1.42231,-9.92307
21.56573,0.36556,-1.37577,-9.91828
21.57577,0.5161,-1.26025,-10.02677
21.5858,0.60454,-1.21566,-10.20543
21.59584,0.50877,-1.19306,-10.3211
21.60588,0.45684,-1.18199,-10.16309
21.61592,0.43949,-1.23616,-9.82745
21.62595,0.37993,-1.24618,-9.59177
21.63599,0.31289,-1.25172,-9.52937
21.64603,0.31289,-1.2791,-9.51127
21.65607,0.33175,-1.31112,-9.43764
21.6661,0.37694,-1.29272,-9.34577
21.67614,0.41465,-1.23092,-9.32527
21.68618,0.46373,-1.15775,-9.26361
21.69622,0.55935,-1.0533,-9.31898
21.70625,0.54588,-0.97938,-9.3953
21.71629,0.53899,-0.92895,-9.45949
21.72633,0.61127,-0.87867,-9.52773
21.73637,0.63925,-0.83199,-9.69442
21.74641,0.58493,-0.77452,-9.82431
21.75644,0.63536,-0.75328,-9.83104
21.76648,0.7226,-0.75298,-9.7453
21.77652,0.77632,-0.73577,-9.81024
21.78656,0.8453,-0.71512,-9.92187
21.79659,0.90965,-0.73382,-9.99669
21.80663,0.8658,-0.81253,-9.96123
21.81667,0.7847,-0.9071,-9.82266
21.82671,0.79113,-0.97205,-9.66913
21.83674,0.84096,-0.98477,-9.54389
21.84678,0.8857,-0.99494,-9.55257
21.85682,0.93,-0.96666,-9.70819
21.86686,0.95364,-0.95439,-9.7869
21.87689,0.92431,-1.00167,-9.7869
21.88693,0.93344,-1.01454,-9.78256
21.89697,1.03415,-0.93329,-9.81308
21.90701,1.12602,-0.78874,-9.87683
21.91704,1.22074,-0.64928,-10.1149
21.92708,1.4461,-0.44787,-10.33831
21.93712,1.58047,-0.23194,-10.39173
21.94716,1.55698,-0.20755,-10.33756
21.95719,1.29556,-0.40821,-10.26918
21.96723,0.9297,-0.74819,-10.17805
21.97727,0.64584,-0.9716,-9.98203
21.98731,0.66918,-0.98477,-9.66838
21.99735,0.83363,-0.96277,-9.37285
22.00738,0.97833,-0.9104,-9.26391
22.01742,1.04612,-0.85458,-9.23818
22.02746,1.06362,-0.84575,-9.27544
22.0375,0.98701,-0.85383,-9.26676
22.04753,0.89558,-0.88346,-9.24341
22.05757,0.90546,-0.87239,-9.18102
22.06761,0.95559,-0.80101,-9.12744
22.07764,0.93434,-0.75492,-9.05532
22.08768,0.77557,-0.81612,-8.99127
22.09772,0.48498,-0.88122,-8.94997
22.10776,0.24092,-0.96875,-8.77505
22.1178,0.02828,-1.14458,-8.61703
22.12783,-0.29015,-1.22463,-8.51528
22.13787,-0.52313,-1.06871,-8.5461
22.14791,-0.67561,-0.84635,-8.63035
22.15795,-0.82405,-0.59436,-8.67195
22.16798,-0.99539,-0.29568,-8.60656
22.17802,-1.14278,0.1248,-8.33003
22.18806,-1.29496,0.16834,-8.1117
22.1981,-1.72457,0.0416,-7.78505
22.20813,-2.34617,0.05552,-7.55535
22.21817,-2.91733,0.14545,-7.54024
22.22821,-3.3245,0.17882,-7.48128
22.23825,-3.41024,0.0829,-7.25039
22.24828,-3.31642,0.03382,-7.21298
22.25832,-3.25237,0.1857,-7.38477
22.26836,-3.32151,0.44083,-8.00337
22.2784,-3.46995,0.73113,-8.6109
22.28843,-3.62273,0.90022,-8.92558
22.29847,-3.86843,0.91339,-9.34592
22.30851,-4.08645,0.84126,-10.14603
22.31855,-4.41162,0.73562,-10.87626
22.32858,-5.03755,0.71482,-11.66455
22.33862,-5.85697,0.57566,-12.48008
22.34866,-7.19892,-0.0422,-13.21929
22.3587,-8.77954,-0.95873,-14.09197
22.36874,-10.16219,-2.01502,-15.03125
22.37877,-11.05672,-2.90896,-15.62516
22.38881,-11.03353,-3.17292,-15.98833
22.39885,-10.15935,-2.74795,-16.66619
22.40889,-8.84837,-1.9839,-18.14745
22.41892,-7.70409,-1.45897,-20.09813
22.42896,-6.65753,-1.38041,-22.59588
22.439,-5.6358,-1.29856,-25.5608
22.44904,-4.357,-0.58239,-28.62777
22.45907,-2.91599,0.44787,-31.12432
22.46911,-1.72457,1.31516,-32.52164
22.47915,-0.60723,2.14625,-32.80086
22.48919,0.47645,3.02627,-32.24421
22.49922,1.35033,3.78,-30.96975
22.50926,2.13817,4.15274,-29.2962
22.5193,3.323,4.59702,-27.70301
22.52934,4.92398,5.38246,-25.73587
22.53937,6.90398,6.38833,-23.8238
22.54941,9.42223,7.19517,-22.68356
22.55945,12.10942,8.34993,-22.56385
22.56949,14.23592,9.7224,-22.71828
22.57952,15.40714,10.77466,-21.78379
22.58956,15.31646,11.40912,-19.49254
22.5996,14.4912,11.52479,-16.61681
22.60964,13.18846,11.006,-13.67792
22.61968,11.68715,10.38904,-10.92549
22.62971,10.40071,9.89284,-8.20807
22.63975,9.30387,9.51142,-5.70389
22.64979,8.73195,9.26765,-3.40441
22.65983,8.71968,9.17264,-1.21087
22.66986,9.11218,8.91032,0.29778
22.6799,9.39964,8.76173,1.30215
22.68994,9.20062,8.67808,2.24022
22.69998,8.21735,8.55733,3.55105
22.71001,6.16417,7.96356,5.02214
22.72005,3.55015,6.66217,7.0406
22.73009,1.55459,5.49065,9.07687
22.74013,0.81582,5.16115,9.99864
22.75016,0.68878,5.53988,9.49855
22.7602,0.78769,6.0904,8.52306
22.77024,0.56024,6.5655,7.88022
22.78028,-0.63386,6.57732,7.34107
22.79031,-2.2103,6.21475,7.04329
22.80035,-3.75935,6.18243,7.27688
22.81039,-5.6343,6.29271,6.99511
22.82043,-7.43908,5.91832,6.16597
22.83046,-8.69215,5.45115,5.08469
22.8405,-9.92247,5.2216,3.95417
22.85054,-11.32667,5.11506,2.87888
22.86058,-13.15778,5.00643,1.18034
22.87061,-15.00072,4.35864,-1.17825
22.88065,-16.07572,3.5723,-3.38405
22.89069,-17.01903,3.12443,-4.65508
22.90073,-18.55177,2.49596,-6.57193
22.91077,-20.54689,1.50775,-9.69966
22.9208,-22.8564,0.20665,-13.5431
22.93084,-24.96479,-1.15221,-17.76962
22.94088,-26.00432,-1.64018,-21.3063
22.95092,-25.04679,-1.15341,-22.60351
22.96095,-22.29301,0.1022,-21.99388
22.97099,-19.41024,1.24379,-21.28011
22.98103,-17.27656,1.17585,-21.30106
22.99107,-14.71282,0.74564,-20.78107
23.0011,-11.74371,0.4751,-19.68498
23.01114,-9.19463,0.67142,-17.87975
23.02118,-6.89994,1.79206,-16.39011
23.03122,-3.71565,3.83027,-16.33654
23.04125,0.45789,6.0699,-17.02921
23.05129,4.69278,8.51378,-18.67028
23.06133,8.52964,11.41944,-22.13933
23.07137,12.23228,13.66506,-25.98098
23.0814,15.86129,14.43734,-29.91959
23.09144,18.48354,14.3474,-32.71512
23.10148,19.74034,13.43641,-31.67289
23.11152,19.98021,11.84097,-26.99328
23.12155,19.16065,9.9931,-23.12365
23.13159,17.67789,8.05394,-20.06745
23.14163,15.93715,6.01049,-17.35871
23.15167,13.67673,4.1478,-15.00701
23.16171,11.16895,2.70275,-12.89876
23.17174,8.59833,1.52945,-11.20696
23.18178,6.13514,0.5369,-9.96975
23.19182,4.00505,-0.31618,-8.90209
23.20186,2.32791,-0.85219,-8.00786
23.21189,0.62159,-1.1344,-7.49026
23.22193,-0.91683,-1.45029,-7.08953
23.23197,-1.84473,-1.46061,-6.89725
23.24201,-2.19743,-0.97504,-6.72097
23.25204,-2.07996,-0.29434,-6.20203
23.26208,-1.84084,0.268,-6.00556
23.27212,-1.69734,0.86042,-6.34972
23.28216,-1.53798,1.38909,-6.55353
23.29219,-1.37711,1.7548,-6.53482
23.30223,-1.3433,1.96669,-6.35676
23.31227,-1.46615,1.9595,-6.33895
23.32231,-1.56207,1.80433,-6.93555
23.33234,-1.47288,1.78114,-7.60488
23.34238,-1.34719,1.81002,-7.99469
23.35242,-1.07036,1.80029,-8.28947
23.36246,-0.7859,1.66711,-8.42564
23.37249,-0.69626,1.54022,-8.36504
23.38253,-0.69013,1.26519,-8.21929
23.39257,-0.74295,0.96187,-8.43223
23.40261,-0.77033,0.76405,-8.68751
23.41265,-0.61262,0.58688,-8.88832
23.42268,-0.60214,0.31933,-9.455
23.43272,-0.69222,-0.04429,-10.05011
23.44276,-0.68474,-0.25109,-10.26798
23.4528,-0.64464,-0.32741,-10.40834
23.46283,-0.52553,-0.38128,-10.53763
23.47287,-0.24705,-0.46058,-10.694
23.48291,-0.14126,-0.5577,-10.8785
23.49295,-0.17822,-0.60768,-11.13917
23.50298,-0.0627,-0.59391,-11.37979
23.51302,0.13871,-0.46313,-11.64121
23.52306,0.45654,-0.27668,-11.90307
23.5331,0.7223,-0.21249,-12.0759
23.54313,0.7027,-0.14021,-12.06782
23.55317,0.60319,-0.03666,-11.84172
23.56321,0.66738,0.02499,-11.68475
23.57325,0.8682,0.11298,-11.58614
23.58328,1.02876,0.28581,-11.47556
23.59332,1.01559,0.44667,-11.48558
23.60336,0.77916,0.42587,-11.08874
23.6134,0.58718,0.40193,-10.39278
23.62343,0.75343,0.47854,-9.84571
23.63347,0.92371,0.60903,-9.67048
23.64351,1.04657,0.75387,-9.77478
23.65355,1.08218,0.80999,-9.71791
23.66358,0.92386,0.7654,-9.38273
23.67362,0.77467,0.77841,-8.86423
23.68366,0.81867,0.81029,-8.4858
23.6937,0.87418,0.78829,-8.38419
23.70373,0.8676,0.78724,-8.62496
23.71377,0.86969,0.76839,-8.76712
23.72381,0.69118,0.69402,-8.78627
23.73385,0.40327,0.63102,-8.76876
23.74389,0.3506,0.51371,-8.81096
23.75392,0.40672,0.48617,-8.84897
23.76396,0.46313,0.53555,-9.01716
23.774,0.50473,0.55785,-9.21214
23.78404,0.50323,0.52179,-9.29504
23.79407,0.42018,0.47061,-9.51082
23.80411,0.48602,0.48064,-9.63831
23.81415,0.69746,0.56189,-9.62843
23.82419,0.7832,0.5176,-9.7224
23.83422,0.69492,0.49934,-9.96736
23.84426,0.56743,0.44562,-10.05595
23.8543,0.51041,0.36137,-9.96407
23.86434,0.62055,0.37424,-9.93968
23.87437,0.78246,0.36601,-9.9307
23.88441,0.90231,0.44113,-9.92037
23.89445,0.91848,0.56324,-10.19346
23.90449,0.92296,0.54618,-10.37378
23.91452,0.9505,0.54049,-10.41328
23.92456,0.94092,0.52298,-10.28624
23.9346,0.84919,0.50742,-9.94477
23.94464,0.73352,0.473,-9.78989
23.95467,0.64075,0.3922,-9.84915
23.96471,0.57027,0.35733,-9.93279
23.97475,0.60768,0.3307,-10.06148
23.98479,0.68295,0.35419,-10.12313
23.99482,0.72425,0.40522,-9.97664
24.00486,0.70015,0.3304,-9.85394
24.0149,0.66334,0.30975,-9.76191
24.02494,0.75717,0.32995,-9.6431
24.03497,0.74759,0.3491,-9.61227
24.04501,0.61755,0.39504,-9.78136
24.05505,0.58613,0.3527,-9.95629
24.06509,0.57057,0.38607,-10.09904
24.07513,0.62309,0.47315,-10.06163
24.08516,0.74505,0.45669,-9.96661
24.0952,0.73487,0.44023,-9.82206
24.10524,0.5782,0.3735,-9.78001
24.11528,0.47704,0.28341,-9.63442
24.12531,0.4341,0.22072,-9.60254
24.13535,0.46418,0.25453,-9.68829
24.14539,0.48797,0.31199,-9.73078
24.15543,0.46926,0.38232,-9.76056
24.16546,0.42362,0.3717,-9.86007
24.1755,0.41345,0.32606,-9.9729
24.18554,0.43619,0.34252,-10.00552
24.19558,0.43006,0.36437,-9.94058
24.20561,0.40462,0.33848,-9.91993
24.21565,0.42422,0.3096,-9.9298
24.22569,0.47749,0.32456,-9.91723
24.23573,0.6177,0.46298,-9.85079
24.24576,0.72095,0.56294,-9.92217
24.2558,0.75313,0.57147,-9.99699
24.26584,0.73726,0.56354,-9.99459
24.27588,0.73248,0.53136,-9.82491
24.28592,0.78335,0.52238,-9.51441
24.29595,0.7639,0.54289,-9.41894
24.30599,0.70928,0.46477,-9.35235
24.31603,0.65018,0.34462,-9.20735
24.32606,0.61396,0.31424,-9.00669
24.3361,0.64748,0.2704,-8.78433
24.34614,0.71796,0.23553,-8.6522
24.35618,0.66125,0.17837,-8.68108
24.36622,0.54603,0.10699,-8.74692
24.37625,0.51805,0.06105,-8.82114
24.38629,0.55785,0.08709,-8.96494
24.39633,0.64928,0.104,-9.08076
24.40637,0.64913,0.08155,-9.28696
24.4164,0.54618,0.01451,-9.39245
24.42644,0.5354,-0.01885,-9.32542
24.43648,0.58059,-0.00868,-9.34487
24.44652,0.7012,0.01796,-9.37854
24.45655,0.78216,0.00239,-9.40981
24.46659,0.81298,0.0214,-9.5165
24.47663,0.80176,0.01392,-9.61422
24.48667,0.81373,-0.0223,-9.77493
24.4967,0.90052,0.00554,-9.90197
24.50674,0.97249,0.04369,-9.98068
24.51678,1.02113,0.1016,-10.1363
24.52682,1.06542,0.19124,-10.21845
24.53685,1.12976,0.26815,-10.48271
24.54752,1.25127,0.35778,-10.39443
24.55756,1.26923,0.40716,-10.33607
24.56759,1.16628,0.40866,-10.36884
24.57763,1.08158,0.4133,-10.46461
24.58767,1.07799,0.38831,-10.49813
24.59771,1.17121,0.44158,-10.4471
24.60775,1.21491,0.46866,-10.32784
24.61778,1.15894,0.44532,-10.08662
24.62782,1.06422,0.38517,-9.8879
24.63786,0.98506,0.3283,-9.82146
24.64789,0.90815,0.31858,-9.79169
24.65793,0.77363,0.28895,-9.71373
24.66797,0.66843,0.25274,-9.60225
24.67801,0.62788,0.18929,-9.51171
24.68804,0.56368,0.15892,-9.46009
24.69808,0.52388,0.19199,-9.27409
24.70812,0.5586,0.19139,-9.32826
24.71816,0.65526,0.28132,-9.48179
24.7282,0.71317,0.36362,-9.59327
24.73823,0.72245,0.39145,-9.68484
24.74827,0.72754,0.39325,-9.67138
24.75831,0.67307,0.31753,-9.60494
24.76835,0.62204,0.2674,-9.49735
24.77838,0.61441,0.23837,-9.41011
24.78842,0.67172,0.23688,-9.37524
24.79846,0.75627,0.28626,-9.41565
24.8085,0.81208,0.3503,-9.58563
24.81853,0.78231,0.37798,-9.71358
24.82857,0.73846,0.37544,-9.79932
24.83861,0.77198,0.43889,-9.82431
24.84865,0.77437,0.44143,-9.87907
24.85868,0.74639,0.42332,-9.87937
24.86872,0.73128,0.4121,-9.84466
24.87876,0.72634,0.34072,-9.80485
24.8888,0.71123,0.28371,-9.7257
24.89883,0.67921,0.27758,-9.70026
24.90887,0.64,0.23358,-9.7049
24.91891,0.61127,0.21772,-9.69233
24.92895,0.62563,0.24541,-9.63127
24.93899,0.65317,0.23493,-9.55735
24.94902,0.63027,0.21727,-9.49451
24.95906,0.5978,0.2469,-9.47999
24.9691,0.62504,0.28356,-9.58788
24.97913,0.66574,0.31409,-9.6817
24.98917,0.60932,0.30287,-9.74096
24.99921,0.54393,0.29164,-9.69816
25.00925,0.57416,0.25169,-9.63591
25.01928,0.57715,0.21338,-9.61676
25.02932,0.56204,0.20725,-9.59147
25.03936,0.63072,0.2668,-9.59925
25.0494,0.69836,0.31888,-9.69053
25.05944,0.76225,0.33983,-9.72599
25.06947,0.73547,0.36616,-9.65118
25.07951,0.68684,0.36871,-9.58279
25.08955,0.64404,0.38053,-9.57965
25.09959,0.58044,0.39549,-9.61302
25.10962,0.577,0.40163,-9.75577
25.11966,0.58463,0.46881,-9.90586
25.1297,0.58942,0.46433,-10.09365
25.13974,0.66978,0.5161,-10.11505
25.14977,0.63252,0.53914,-10.01225
25.15981,0.47001,0.43185,-9.74275
25.16985,0.37724,0.37544,-9.57217
25.17989,0.24451,0.34925,-9.58324
25.18992,0.25902,0.32187,-9.63487
25.19996,0.42946,0.47256,-9.74739
25.21,0.61187,0.62519,-9.85917
25.22066,0.61187,0.62519,-9.85917
25.2307,0.77168,0.7428,-9.93639
25.24074,0.82376,0.78156,-9.95898
25.25078,0.78081,0.74086,-10.02572
25.26081,0.64494,0.63671,-10.06537
25.27085,0.48946,0.4968,-9.99145
25.28089,0.4531,0.40941,-9.83777
25.29093,0.48019,0.39489,-9.74635
25.30096,0.57775,0.41869,-9.764
25.311,0.61187,0.43754,-9.84286
25.32104,0.6183,0.47809,-9.87384
25.33108,0.64374,0.50967,-9.85349
25.34111,0.65092,0.49455,-9.74261
25.35115,0.68729,0.52777,-9.66599
25.36119,0.8275,0.58628,-9.74515
25.37123,0.94302,0.60753,-9.88192
25.38126,1.00377,0.64539,-10.03425
25.3913,1.00601,0.65272,-10.08767
25.40134,0.86969,0.53914,-10.0344
25.41138,0.66319,0.40073,-9.85768
25.42142,0.57087,0.3081,-9.70759
25.43145,0.53241,0.23912,-9.61511
25.44149,0.63656,0.24017,-9.63098
25.45153,0.76405,0.30167,-9.62155
25.46157,0.82405,0.34731,-9.61077
25.4716,0.84934,0.35883,-9.66943
25.48164,0.86311,0.40941,-9.61152
25.49168,0.87553,0.46268,-9.49974
25.50172,0.88765,0.46043,-9.47864
25.51175,0.8884,0.44068,-9.45021
25.52179,0.91249,0.46642,-9.46114
25.53183,0.8872,0.49231,-9.56918
25.54187,0.91967,0.51341,-9.60464
25.5519,0.96232,0.53705,-9.66434
25.56194,0.90621,0.50338,-9.76011
25.57198,0.8064,0.47585,-9.76221
25.58202,0.76285,0.45056,-9.6835
25.59205,0.72185,0.40178,-9.59835
25.60209,0.67472,0.37544,-9.52309
25.61213,0.64793,0.38352,-9.56888
25.62217,0.63551,0.38607,-9.72929
25.6322,0.60723,0.38936,-9.88192
25.64224,0.63087,0.38771,-9.9325
25.65228,0.64494,0.42512,-9.8882
25.66232,0.5999,0.39115,-9.76056
25.67236,0.59451,0.37305,-9.6814
25.68239,0.53181,0.3111,-9.67392
25.69243,0.50084,0.2876,-9.65941
25.70247,0.50024,0.3087,-9.70804
25.7125,0.5556,0.37993,-9.79588
25.72254,0.66529,0.40462,-9.84945
25.73258,0.76599,0.46702,-9.85334
25.74262,0.81717,0.50159,-9.8472
25.75266,0.8453,0.48378,-9.89374
25.76269,0.85563,0.52283,-10.01764
25.77273,0.88571,0.53211,-10.05161
25.78277,0.87987,0.49695,-10.05101
25.79281,0.83513,0.47854,-10.00597
25.80284,0.78171,0.44023,-9.8876
25.81288,0.7039,0.37918,-9.83448
25.82292,0.62773,0.33145,-9.81129
25.83296,0.62204,0.32022,-9.7863
25.84299,0.66185,0.3512,-9.81174
25.85303,0.72859,0.39669,-9.83164
25.86307,0.74759,0.39863,-9.83613
25.87311,0.66918,0.37918,-9.79423
25.88314,0.61232,0.38247,-9.75323
25.89318,0.6611,0.44547,-9.70235
25.90322,0.7829,0.53061,-9.69397
25.91326,0.81029,0.56503,-9.7254
25.92329,0.76959,0.51176,-9.69128
25.93333,0.71302,0.44323,-9.58025
25.94337,0.71317,0.39355,-9.49361
25.95341,0.75986,0.43066,-9.57815
25.96344,0.74086,0.45325,-9.62843
25.97348,0.75447,0.43604,-9.61511
25.98352,0.75417,0.43335,-9.63023
25.99356,0.78335,0.41839,-9.66375
26.00359,0.79473,0.43604,-9.63831
26.01363,0.80954,0.4317,-9.5801
26.02367,0.79652,0.41225,-9.44228
26.03371,0.75941,0.41135,-9.39694
26.04374,0.77422,0.42183,-9.44408
26.05378,0.81986,0.46926,-9.62783
26.06382,0.87718,0.55007,-9.82296
26.07386,0.86685,0.58987,-9.90167
26.0839,0.81657,0.56593,-9.94357
26.09393,0.73487,0.54229,-9.84271
26.10397,0.69477,0.54348,-9.62933
26.11401,0.69387,0.47465,-9.4764
26.12405,0.68863,0.42871,-9.51336
26.13408,0.72679,0.4341,-9.60195
26.14412,0.77063,0.4347,-9.70819
26.15416,0.804,0.46612,-9.71567
26.1642,0.83618,0.5152,-9.6829
26.17423,0.85428,0.4938,-9.70011
26.18427,0.79951,0.47076,-9.7031
26.19431,0.77078,0.42737,-9.65507
26.20435,0.80505,0.4317,-9.61137
26.21438,0.89812,0.45954,-9.61736
26.22442,0.95574,0.49755,-9.6606
26.23446,0.95125,0.53914,-9.72166
26.2445,0.88346,0.48872,-9.81712
26.25454,0.81268,0.46148,-9.80874
26.26457,0.78949,0.43694,-9.75024
26.27461,0.8248,0.42901,-9.67617
26.28465,0.81792,0.47809,-9.66464
26.29469,0.8444,0.55052,-9.69412
26.30472,0.87104,0.58778,-9.78854
26.31476,0.86999,0.59661,-9.91424
26.3248,0.87882,0.60005,-9.95973
26.33484,0.80505,0.52598,-10.00477
26.34487,0.75028,0.50757,-9.98203
26.35491,0.78814,0.48408,-9.89957
26.36495,0.87718,0.50383,-9.94252
26.37499,0.9493,0.54109,-9.9096
26.38502,0.95708,0.55276,-9.88222
26.39506,0.90965,0.51386,-9.93429
26.4051,0.8896,0.46852,-9.9087
26.41514,0.9074,0.46582,-9.84017
26.42517,0.93269,0.52134,-9.68859
26.43521,0.98282,0.54797,-9.64594
26.44525,0.98686,0.54887,-9.62783
26.45529,0.94062,0.4962,-9.54718
26.46532,0.90546,0.45789,-9.45365
26.47536,0.89633,0.41405,-9.40802
26.4854,0.94945,0.41345,-9.44153
26.49544,1.0952,0.50218,-9.45036
26.50547,1.23212,0.62144,-9.45246
26.51551,1.31292,0.599,-9.47341
26.52555,1.37846,0.57102,-9.50857
26.53559,1.46091,0.64883,-9.54254
26.54563,1.53289,0.69761,-9.45844
26.55566,1.54755,0.67202,-9.37599
26.5657,1.57688,0.65541,-9.37046
26.57574,1.64811,0.75956,-9.39964
26.58578,1.6306,0.76166,-9.47595
26.59581,1.61863,0.74295,-9.58758
26.60585,1.61863,0.848,-9.69966
26.61589,1.55384,0.85593,-9.80171
26.62593,1.39672,0.82361,-9.849
26.63596,1.06542,0.81208,-9.88775
26.646,0.74011,0.72859,-9.97424
26.65604,0.4537,0.6397,-9.95464
26.66608,0.23134,0.54603,-9.9524
26.67611,0.12959,0.48722,-9.87084
26.68615,0.13108,0.49291,-9.74231
26.69619,0.05941,0.48258,-9.67392
26.70623,-0.09846,0.3916,-9.64295
26.71626,-0.29913,0.32112,-9.53296
26.7263,-0.49395,0.23119,-9.4553
26.73634,-0.71856,0.18346,-9.35474
26.74638,-0.8887,0.09352,-9.27005
26.75641,-0.98895,0.03412,-9.19748
26.76645,-0.97459,0.02005,-9.26616
26.77649,-0.98611,0.03576,-9.36701
26.78653,-1.03729,0.07871,-9.43405
26.79656,-1.18528,0.10385,-9.50678
26.8066,-1.33013,0.05402,-9.61915
26.81664,-1.3843,0.09562,-9.5786
26.82668,-1.41363,0.32367,-9.46188
26.83672,-1.41512,0.39609,-9.46967
26.84675,-1.50685,0.36003,-9.53431
26.85679,-1.7349,0.38427,-9.5385
26.86683,-1.86897,0.38277,-9.44722
26.87687,-1.94738,0.47719,-9.32197
26.8869,-2.1063,0.64733,-9.32452
26.89694,-2.31893,0.83318,-9.26586
26.90698,-2.52738,0.95603,-9.22261
26.91702,-2.89579,0.93329,-9.10679
26.92705,-3.47833,0.97519,-8.89087
26.93709,-4.01538,0.84485,-8.69784
26.94713,-4.53836,0.68295,-8.45826
26.95717,-5.01959,0.47884,-8.27212
26.9672,-5.4091,0.44966,-8.16961
26.97724,-5.77871,0.54094,-8.28229
26.98728,-6.03384,0.66843,-8.47742
26.99732,-6.20742,0.78859,-8.98319
27.00735,-6.45372,0.84066,-9.7221
27.01739,-6.64496,0.96382,-10.36659
27.02743,-6.93929,0.96262,-10.93731
27.03747,-7.44058,0.70524,-11.71094
27.0475,-8.06292,0.25962,-12.77905
27.05754,-8.62511,-0.12944,-13.8515
27.06758,-8.99666,-0.50069,-14.91932
27.07762,-8.88802,-0.82106,-15.83749
27.08766,-8.18218,-0.78186,-16.32606
27.09769,-6.89321,-0.54558,-16.79218
27.10773,-5.27203,-0.37365,-18.07921
27.11777,-3.74094,-0.07272,-20.00894
27.12781,-2.56464,0.2885,-22.32054
27.13784,-1.81181,0.64135,-24.81545
27.14788,-1.23346,0.64479,-26.86713
27.15792,-0.5571,0.60888,-28.67924
27.16796,0.34671,1.00661,-30.48687
27.17799,1.71365,1.86478,-32.27728
27.18803,3.19551,3.00757,-34.01173
27.19807,4.69174,4.3956,-35.00517
27.20811,6.36977,5.64313,-35.02403
27.21814,8.22034,6.92283,-33.46331
27.22818,9.97335,8.2585,-30.46038
27.23822,11.2309,9.3733,-27.12601
27.24826,11.65004,9.91634,-24.93546
27.25829,11.64315,10.22997,-23.11198
27.26833,12.09536,11.10431,-20.39531
27.27837,12.87078,12.21297,-16.88002
27.28841,13.48414,12.90325,-13.45661
27.29844,13.80452,13.26148,-10.52267
27.30848,13.81604,13.20761,-7.88426
27.31852,13.28513,12.79566,-5.42212
27.32856,12.43743,12.12753,-3.96315
27.3386,11.34208,11.67129,-3.45558
27.34863,10.1794,11.23778,-3.71311
27.35867,9.07163,10.89496,-3.75396
27.36871,7.95698,11.13259,-2.77353
27.37875,6.68416,11.03218,-0.78021
27.38878,5.09875,10.27681,1.60382
27.39882,3.6558,9.92037,5.23687
27.40886,2.45645,9.67811,9.23563
27.4189,1.28494,9.60314,12.31802
27.42893,0.42213,9.42014,13.87634
27.43897,-0.56234,9.02958,13.90792
27.44901,-1.85341,8.96434,12.48726
27.45905,-3.15885,9.09108,9.81159
27.46908,-4.2343,9.61975,6.92553
27.47912,-5.08543,10.716,4.13643
27.48916,-6.21355,11.43381,1.47528
27.4992,-7.64633,11.41406,-0.69866
27.50923,-9.65806,11.20786,-2.23484
27.51927,-12.61714,9.80979,-3.49509
27.52931,-16.05372,6.88273,-5.17327
27.53935,-18.6649,3.70712,-6.42499
27.54938,-20.10965,1.47064,-6.57687
27.55942,-20.69054,-0.01062,-6.82931
27.56946,-21.0169,-0.97848,-8.36893
27.5795,-21.05356,-1.02771,-10.55798
27.58953,-21.36615,-1.3617,-12.81871
27.59957,-22.1525,-2.53381,-14.38616
27.60961,-22.57044,-3.29592,-14.65895
27.61965,-22.92837,-4.32617,-14.2021
27.62969,-23.4518,-5.28685,-14.6383
27.63972,-23.40362,-5.31094,-16.12614
27.64976,-22.44983,-4.73708,-16.79054
27.6598,-20.58505,-4.03617,-15.80966
27.66984,-18.36412,-2.84416,-14.94446
27.67987,-15.69609,-1.34644,-15.19989
27.68991,-12.74658,-0.07826,-15.18073
27.69995,-9.82027,1.17855,-14.60732
27.70999,-6.83664,2.31789,-14.5753
27.72002,-3.72493,3.01774,-15.78033
27.73006,-0.29419,4.89046,-16.94915
27.7401,4.05264,8.22049,-18.98467
27.75014,8.92065,11.32248,-22.40973
27.76017,13.60355,13.82173,-25.59117
27.77021,17.74163,15.42883,-26.66662
27.78025,20.55691,15.84902,-26.13361
27.79029,21.80684,15.25959,-24.51244
27.80032,22.06496,14.16499,-22.33955
27.81036,21.82524,12.79596,-21.14753
27.8204,20.86412,11.09892,-20.32123
27.83044,19.03929,9.24386,-18.71757
27.84047,16.4739,7.50193,-16.5185
27.85051,13.27286,5.60572,-14.01162
27.86055,9.96332,3.7556,-11.61382
27.87059,7.18889,2.17229,-9.68051
27.88063,4.98787,1.07904,-8.29875
27.89066,3.31148,0.53286,-7.34541
27.9007,1.97941,0.17163,-6.69434
27.91074,0.81208,-0.13961,-6.30393
27.92078,-0.18196,-0.51909,-6.38743
27.93081,-0.98312,-0.67068,-6.59647
27.94085,-1.56745,-0.60079,-6.76512
27.95089,-2.02639,-0.42931,-6.81869
27.96093,-2.2091,-0.11747,-6.88767
27.97096,-1.9405,0.22191,-7.00798
27.981,-1.54561,0.63925,-7.35155
27.99104,-1.23227,1.02696,-7.5555
28.00108,-1.18154,1.16508,-7.61611
28.01111,-1.25187,1.06422,-8.09749
28.02115,-1.28254,0.95364,-8.83161
28.03119,-1.19082,0.91219,-9.25808
28.04123,-1.03519,1.02502,-9.1062
28.05126,-0.99314,0.94751,-9.06819
28.0613,-1.01424,0.69656,-9.21423
28.07134,-0.99524,0.32471,-9.36896
28.08138,-1.06063,-0.00793,-9.50169
28.09141,-1.15116,-0.20575,-9.47191
28.10145,-1.1169,-0.34297,-9.59776
28.11149,-1.04866,-0.42407,-9.72106
28.12153,-0.88705,-0.48692,-9.95599
28.13157,-0.68354,-0.60633,-10.19062
28.1416,-0.58299,-0.62728,-10.34101
28.15164,-0.39025,-0.52313,-10.47912
28.16168,-0.1447,-0.44697,-10.55259
28.17172,0.07227,-0.41943,-10.71705
28.18175,0.26411,-0.47525,-10.94285
28.19179,0.27159,-0.5565,-11.0868
28.20183,0.1857,-0.5357,-10.97113
28.21186,0.20276,-0.56802,-10.92055
28.2219,0.39669,-0.50473,-10.75595
28.23194,0.63536,-0.44757,-10.58432
28.24198,0.72784,-0.40806,-10.53733
28.25202,0.65407,-0.31409,-10.42286
28.26205,0.7425,-0.24556,-10.15695
28.27209,0.84007,-0.15323,-9.91484
28.28213,0.96591,0.01646,-10.03589
28.29217,1.15595,0.22491,-10.14199
28.3022,1.23197,0.43245,-10.41867
28.31224,1.20608,0.51311,-10.67051
28.32228,1.17017,0.53047,-10.4658
28.33232,1.19875,0.63506,-10.10832
28.34235,1.17645,0.67576,-9.89733
28.35239,1.12258,0.69626,-9.99235
28.36243,1.26578,0.81268,-10.16458
28.37247,1.39537,0.88765,-10.19571
28.3825,1.3406,0.93015,-10.20065
28.39254,1.21386,0.89708,-10.13136
28.40258,1.02771,0.78365,-10.01988
28.41262,0.87493,0.72335,-9.89224
28.42265,0.84306,0.67681,-9.66135
28.43269,0.72619,0.57162,-9.5388
28.44273,0.61875,0.49066,-9.62275
28.45277,0.59227,0.45086,-9.67856
28.4628,0.58,0.40342,-9.65178
28.47284,0.59212,0.40582,-9.46997
28.48288,0.57745,0.27967,-9.30656
28.49292,0.42123,0.13812,-9.14361
28.50296,0.32172,0.10639,-9.09722
28.51299,0.34985,0.03546,-9.02045
28.52303,0.48019,0.09203,-9.01581
28.53307,0.66514,0.17897,-9.27708
28.54311,0.77542,0.23987,-9.75248
28.55377,0.71826,0.19393,-9.8496
28.56381,0.69671,0.16325,-9.69517
28.57385,0.72559,0.15353,-9.44662
28.58388,0.71856,0.07961,-9.26317
28.59392,0.63671,0.0636,-9.21289
28.60396,0.64928,0.08185,-9.27738
28.614,0.63147,0.02544,-9.58234
28.62403,0.495,-0.041,-10.00791
28.63407,0.51266,-0.06434,-10.14827
28.64411,0.61666,0.00479,-10.08872
28.65415,0.65332,0.0624,-9.93145
28.66418,0.67935,0.08814,-9.72585
28.67422,0.76689,0.16715,-9.49301
28.68426,0.89648,0.2282,-9.40921
28.6943,0.95125,0.27803,-9.52234
28.70433,0.96082,0.32666,-9.73333
28.71437,0.90291,0.31828,-9.97888
28.72441,0.93434,0.34043,-9.94447
28.73445,0.99569,0.32651,-9.6606
28.74448,0.90336,0.19887,-9.45755
28.75452,0.88466,0.19603,-9.3733
28.76456,0.95948,0.26306,-9.52174
28.7746,1.08203,0.35913,-9.80605
28.78464,1.24603,0.42377,-9.87069
28.79467,1.25037,0.44038,-9.75787
28.80471,1.11749,0.39325,-9.63023
28.81475,0.95678,0.30421,-9.55107
28.82479,0.84949,0.22565,-9.53685
28.83482,0.8896,0.22161,-9.51994
28.84486,0.98342,0.24286,-9.56588
28.8549,1.08353,0.32441,-9.66105
28.86494,1.1561,0.38202,-9.72884
28.87497,1.10163,0.40387,-9.8466
28.88501,1.00796,0.37574,-9.85603
28.89505,0.89708,0.31125,-9.81353
28.90509,0.84126,0.36452,-9.78899
28.91512,0.80879,0.32711,-9.80111
28.92516,0.78949,0.24166,-9.8686
28.9352,0.83438,0.25169,-9.868
28.94524,0.89558,0.28147,-9.89239
28.95527,0.88196,0.26471,-9.96257
28.96531,0.78455,0.24361,-9.99998
28.97535,0.69043,0.24945,-9.92247
28.98539,0.62144,0.22057,-9.73827
28.99542,0.61546,0.24241,-9.581
29.00546,0.6403,0.22939,-9.53266
29.0155,0.65377,0.18525,-9.67362
29.02554,0.67965,0.19812,-9.76849
29.03557,0.66289,0.20725,-9.80111
29.04561,0.52807,0.18974,-9.81039
29.05565,0.41734,0.14036,-9.70594
29.06569,0.32441,0.14275,-9.62753
29.07573,0.4118,0.15458,-9.55242
29.08576,0.54977,0.17642,-9.45635
29.0958,0.59122,0.23403,-9.49451
29.10584,0.62758,0.25827,-9.55601
29.11588,0.58329,0.26246,-9.58309
29.12591,0.53181,0.25992,-9.59446
29.13595,0.50997,0.23777,-9.57292
29.14599,0.47959,0.22954,-9.44587
29.15603,0.44278,0.2261,-9.29115
29.16606,0.48318,0.22266,-9.38333
29.1761,0.57955,0.22505,-9.47415
29.18614,0.69492,0.29119,-9.50064
29.19618,0.80146,0.38217,-9.56454
29.20621,0.89558,0.40716,-9.76415
29.21625,1.09595,0.51864,-10.10712
29.22692,1.09595,0.51864,-10.10712
29.23695,1.27521,0.55964,-10.16413
29.24699,1.50655,0.63012,-10.18882
29.25703,1.67878,0.62399,-10.29432
29.26707,1.6939,0.53076,-10.42989
29.2771,1.73669,0.44457,-10.38275
29.28714,1.84024,0.39863,-10.22638
29.29718,2.03597,0.48228,-10.18808
29.30722,2.24247,0.62968,-10.16309
29.31725,2.40079,0.77333,-10.16443
29.32729,2.43341,0.88421,-10.10652
29.33733,2.22317,0.8474,-10.13331
29.34737,1.83441,0.75268,-10.24643
29.3574,1.45448,0.66005,-10.25422
29.36744,1.08143,0.57251,-10.11176
29.37748,0.79203,0.45505,-9.96272
29.38752,0.52957,0.31499,-9.84241
29.39756,0.3298,0.20575,-9.75921
29.40759,0.18316,0.11911,-9.58309
29.41763,0.0814,0.07317,-9.36133
29.42767,-0.01661,0.03741,-9.21693
29.43771,-0.07946,0.04115,-9.10874
29.44774,-0.12824,0.05133,-8.98963
29.45778,-0.20366,-0.01137,-8.97437
29.46782,-0.24166,-0.11732,-9.00594
29.47786,-0.22715,-0.16969,-9.00938
29.48789,-0.19872,-0.1435,-8.99936
29.49793,-0.09233,-0.07138,-8.98634
29.50797,0.08036,-0.00988,-9.14989
29.51801,0.17014,0.04265,-9.46233
29.52804,0.18166,0.02978,-9.72809
29.53808,0.15173,-0.10879,-9.70714
29.54812,0.21323,-0.13946,-9.54598
29.55816,0.4558,-0.09756,-9.40802
29.56819,0.70838,-0.08709,-9.43106
29.57823,0.92431,-0.0401,-9.60045
29.58827,1.07021,0.05492,-9.83104
29.59831,1.11974,0.08021,-10.0347
29.60834,1.14982,0.09756,-10.1592
29.61838,1.18857,0.15188,-10.177
29.62842,1.2191,0.21668,-10.10667
29.63846,1.20503,0.23119,-10.03515
29.64849,1.1368,0.1872,-9.94192
29.65853,1.01993,0.15443,-9.93848
29.66857,0.91324,0.15413,-10.05385
29.67861,0.86296,0.167,-10.20573
29.68865,0.79188,0.16939,-10.34729
29.69868,0.72619,0.19543,-10.32051
29.70872,0.68564,0.25304,-10.19885
29.71876,0.62474,0.25393,-9.96093
29.7288,0.59002,0.19797,-9.71387
29.73883,0.51864,0.15473,-9.53281
29.74887,0.47779,0.11896,-9.44153
29.75891,0.41809,0.13004,-9.39141
29.76895,0.36781,0.09038,-9.47715
29.77898,0.33848,0.10639,-9.57666
29.78902,0.28162,0.14245,-9.45365
29.79906,0.19932,0.10968,-9.32182
29.8091,0.12839,0.09442,-9.23384
29.81913,0.09502,0.11956,-9.13762
29.82917,0.02215,0.11357,-9.14196
29.83921,-0.07257,0.09906,-9.16411
29.84925,-0.14051,0.09741,-9.14301
29.85928,-0.19962,0.09697,-9.09542
29.86932,-0.27877,0.09233,-8.92648
29.87936,-0.34297,0.1444,-8.80258
29.8894,-0.41764,0.2258,-8.76727
29.89943,-0.50622,0.33175,-8.66013
29.90947,-0.64389,0.42108,-8.47098
29.91951,-0.87688,0.45235,-8.23411
29.92955,-1.15116,0.42662,-7.99185
29.93959,-1.4229,0.46732,-7.77951
29.94962,-1.76453,0.38277,-7.60503
29.95966,-2.10525,0.25064,-7.52872
29.9697,-2.28931,0.26591,-7.47829
29.97974,-2.44837,0.21219,-7.43594
29.98977,-2.57676,0.21982,-7.40048
29.99981,-2.7059,0.29688,-7.45046
30.00985,-2.81199,0.32531,-7.69646
30.01989,-2.86646,0.40806,-8.12323
30.02992,-2.78266,0.58808,-8.53832
30.03996,-2.76605,0.64404,-8.89027
30.05,-2.81259,0.69252,-9.33978
30.06004,-2.79852,0.76435,-9.81757
30.07007,-2.91374,0.63955,-10.17132
30.08011,-3.04902,0.48692,-10.55035
30.09015,-3.16648,0.39295,-10.92549
30.10019,-3.07296,0.46507,-11.10116
30.11022,-2.77877,0.60334,-11.26038
30.12026,-2.47246,0.74654,-11.51222
30.1303,-2.37206,0.75133,-11.72186
30.14034,-2.51855,0.58823,-12.1395
30.15037,-2.78371,0.40208,-12.63704
30.16041,-3.17726,0.164,-13.22437
30.17045,-3.83536,0.10714,-13.83489
30.18049,-4.56185,-0.32591,-14.66733
30.19052,-5.53719,-0.99075,-15.48929
30.20056,-6.52405,-1.60965,-16.09966
30.2106,-7.17093,-2.03911,-16.58808
30.22064,-7.4304,-2.15598,-17.27776
30.23068,-7.56523,-2.16496,-18.1684
30.24071,-7.54997,-2.11647,-18.98348
30.25075,-7.4946,-1.93601,-19.80154
30.26079,-7.37264,-1.74537,-20.38244
30.27083,-6.9791,-1.41288,-20.79424
30.28086,-6.5453,-0.93928,-21.37139
30.2909,-6.11539,-0.66574,-22.00675
30.30094,-5.48078,-0.28162,-22.45641
30.31098,-4.75354,0.29643,-22.73684
30.32101,-4.05129,0.66364,-22.94977
30.33105,-3.2624,0.94212,-23.23842
30.34109,-2.27285,1.37367,-23.48547
30.35113,-1.1335,2.02071,-23.64932
30.36117,0.09532,2.93828,-23.40826
30.3712,1.44266,3.92335,-22.66127
30.38124,2.9121,4.91664,-21.75761
30.39128,4.63039,5.82928,-20.70835
30.40132,6.58376,6.63523,-19.7984
30.41135,8.6507,7.25742,-18.93215
30.42139,10.54466,7.48143,-17.85162
30.43143,12.14983,7.58782,-16.57296
30.44147,13.26163,7.50298,-15.28129
30.4515,13.50958,7.02429,-14.40277
30.46154,12.95293,6.44414,-14.02134
30.47158,11.81733,5.92999,-13.65039
30.48162,10.57594,5.69117,-13.3574
30.49165,9.56454,5.50247,-12.9634
30.50169,8.81545,5.41928,-12.43129
30.51173,8.28947,5.71227,-11.58809
30.52177,7.83832,5.94286,-10.39966
30.5318,7.33434,6.09938,-9.34337
30.54184,6.82063,6.41242,-8.05619
30.55188,6.25231,6.58555,-6.2773
30.56192,5.57191,6.32159,-4.67722
30.57195,5.00912,5.94091,-3.1593
30.58199,4.52699,5.53629,-1.92419
30.59203,4.16965,5.10803,-1.14637
30.60207,3.87531,4.59013,-1.06228
30.61211,3.41174,4.14691,-0.93389
30.62214,2.71847,3.75052,-0.3494
30.63218,1.88454,3.37508,0.49844
30.64222,1.08457,3.07834,1.32878
30.65226,0.42602,2.74735,2.2908
30.66229,-0.09996,2.29724,3.21122
30.67233,-0.49201,2.11109,3.98904
30.68237,-0.77901,2.01427,4.67962
30.69241,-0.94421,1.80762,5.2222
30.70244,-1.00631,1.87271,5.36196
30.71248,-0.79697,2.21449,5.14619
30.72252,-0.49829,2.66565,5.39878
30.73256,0.02738,3.44376,5.20125
30.74259,0.64988,4.69697,4.52085
30.75263,1.06392,5.84215,3.40695
30.76267,0.69896,6.28867,1.74073
30.77271,-0.74729,6.08816,0.10071
30.78274,-3.09301,5.29133,-1.53034
30.79278,-6.10836,4.00116,-3.74034
30.80282,-8.78298,2.64649,-5.61979
30.81286,-10.3217,2.0843,-6.55862
30.82289,-10.38156,2.43146,-6.9987
30.83293,-9.79258,3.00203,-8.1132
30.84297,-10.49857,3.26913,-10.74428
30.85301,-12.48052,2.75094,-13.36249
30.86305,-15.28294,1.20548,-15.03035
30.87308,-18.35799,-0.64195,-15.50724
30.88312,-20.0483,-2.10346,-14.6989
30.89316,-19.87651,-2.81304,-13.75843
30.9032,-18.88636,-2.81558,-13.76711
30.91323,-17.50146,-3.12997,-14.26106
30.92327,-16.394,-3.75141,-14.17951
30.93331,-16.05327,-4.35475,-13.65249
30.94335,-15.96663,-4.91096,-12.88021
30.95338,-15.81939,-4.92637,-12.09057
30.96342,-15.16847,-4.76371,-11.54514
30.97346,-13.89999,-4.27993,-10.7751
30.9835,-12.346,-3.46291,-10.22399
30.99353,-10.96335,-2.56823,-10.37916
31.00357,-9.38677,-1.73595,-10.72842
31.01361,-7.76395,-1.14877,-10.84319
31.02365,-6.67025,-0.9915,-11.12825
31.03368,-6.04715,-0.61067,-12.19367
31.04372,-5.42795,0.82765,-13.63767
31.05376,-3.89581,2.19623,-15.5267
31.0638,-1.6312,2.87259,-17.3412
31.07383,0.30691,3.99278,-18.7267
31.08387,1.78772,5.19302,-19.63156
31.09391,3.20389,5.61186,-19.56003
31.10395,4.19928,5.76584,-19.4493
31.11399,5.58792,6.25141,-20.42389
31.12402,7.50777,6.54964,-22.28807
31.13406,9.20556,6.73384,-23.75796
31.1441,10.12927,6.80522,-24.62706
31.15414,10.25407,6.37471,-24.82233
31.16417,10.04128,5.63146,-23.96371
31.17421,9.77777,4.88851,-21.96396
31.18425,9.37719,4.05578,-19.77206
31.19429,8.92214,3.20928,-17.68941
31.20432,8.29755,2.44972,-16.0193
31.21436,7.56074,1.8181,-14.71087
31.2244,7.00409,1.35183,-13.57497
31.23444,6.43636,1.06647,-12.60876
31.24447,5.7823,0.96307,-11.69627
31.25451,5.10534,0.80221,-11.18287
31.26455,4.17339,0.64389,-11.04311
31.27459,3.03345,0.40582,-10.87656
31.28462,2.2281,0.19243,-10.27217
31.29466,1.652,0.11971,-9.58953
31.3047,1.12198,0.04534,-8.96539
31.31474,0.66274,-0.06434,-8.40484
31.32477,0.22027,-0.16236,-8.04392
31.33481,-0.10564,-0.17283,-7.76604
31.34485,-0.27608,-0.04205,-7.38866
31.35489,-0.34491,0.10505,-7.37713
31.36493,-0.39564,0.27369,-7.68389
31.37496,-0.45101,0.44921,-7.94276
31.385,-0.44502,0.5779,-8.04571
31.39504,-0.50323,0.51116,-8.1741
31.40507,-0.55366,0.28745,-8.31252
31.41511,-0.59915,0.06644,-8.30638
31.42515,-0.4962,-0.08395,-8.12816
31.43519,-0.2897,-0.11552,-8.00187
31.44523,-0.16221,-0.11971,-7.90775
31.45526,-0.19767,-0.28072,-8.06771
31.4653,-0.41375,-0.44338,-8.38015
31.47534,-0.57446,-0.53585,-8.66821
31.48538,-0.80909,-0.74924,-8.98005
31.49541,-1.06976,-1.02217,-9.22082
31.50545,-1.11615,-1.16523,-9.40128
31.51549,-1.00332,-1.21566,-9.61616
31.52553,-0.90172,-1.20847,-9.8062
31.53556,-0.77737,-1.21221,-10.05804
31.5456,-0.66005,-1.19964,-10.27172
31.55564,-0.6002,-1.18872,-10.43303
31.56568,-0.5764,-1.20443,-10.58626
31.57571,-0.5357,-1.27132,-10.65659
31.58575,-0.44966,-1.30978,-10.55843
31.59579,-0.28177,-1.2604,-10.32634
31.60583,-0.05776,-1.16987,-10.17611
31.61586,0.07961,-1.10073,-10.13481
31.6259,0.21982,-1.09595,-10.15082
31.63594,0.45041,-1.00841,-10.08333
31.64598,0.60947,-0.78949,-9.99205
31.65602,0.66693,-0.6831,-9.89568
31.66605,0.71168,-0.69162,-9.88042
31.67609,0.71257,-0.71856,-9.78435
31.68613,0.68549,-0.79338,-9.61062
31.69617,0.59496,-0.95035,-9.45246
31.7062,0.38517,-1.14084,-9.13223
31.71624,0.25543,-1.25591,-8.93351
31.72628,0.31723,-1.26369,-8.87276
31.73632,0.48946,-1.12318,-8.74856
31.74635,0.74101,-0.94272,-8.77131
31.75639,0.85653,-0.83588,-9.01567
31.76643,0.86969,-0.7416,-9.36058
31.77647,0.74968,-0.67337,-9.47879
31.7865,0.58628,-0.60947,-9.47131
31.79654,0.50712,-0.58823,-9.50528
31.80658,0.51849,-0.50084,-9.57052
31.81662,0.5969,-0.40028,-9.63681
31.82666,0.67112,-0.34476,-9.83373
31.83669,0.68803,-0.25618,-10.11969
31.84673,0.62429,-0.24181,-10.30315
31.85677,0.52687,-0.29149,-10.34265
31.8668,0.38173,-0.37529,-10.28908
31.87684,0.26022,-0.4329,-10.17581
31.88688,0.10699,-0.51101,-9.97185
31.89692,0.08051,-0.5996,-9.7462
31.90696,0.10909,-0.67457,-9.5801
31.91699,0.11058,-0.76151,-9.51127
31.92703,0.01422,-0.79487,-9.5584
31.93707,-0.15069,-0.70719,-9.74036
31.94711,-0.36781,-0.34072,-9.48837
31.95714,0.03696,-0.90127,-9.06789
31.96718,-0.05626,-1.58122,-10.12074
31.97722,-0.44338,-1.27761,-9.93908
31.98726,-0.53795,-0.90187,-9.79333
31.99729,-0.47465,-0.9074,-9.95419
32.00733,-0.40267,-0.96127,-9.87638
32.01737,-0.40881,-1.02143,-9.81129
32.02741,-0.56219,-1.04387,-9.78465
32.03745,-0.72649,-1.09894,-9.77044
32.04748,-0.79128,-1.17331,-9.68036
32.05752,-0.74774,-1.25262,-9.54538
32.06756,-0.63057,-1.24992,-9.47715
32.07759,-0.49081,-1.18618,-9.50857
32.08763,-0.40372,-1.12004,-9.52787
32.09767,-0.38936,-1.07111,-9.58997
32.10771,-0.49051,-1.06796,-9.57321
32.11775,-0.60035,-1.07245,-9.61137
32.12778,-0.61591,-1.05001,-9.67811
32.13782,-0.57625,-1.07051,-9.74814
32.14786,-0.54752,-1.03953,-9.77328
32.1579,-0.48692,-1.02876,-9.77478
32.16793,-0.41824,-1.03923,-9.83762
32.17797,-0.35718,-0.99644,-9.86052
32.18801,-0.38397,-0.97938,-9.85977
32.19805,-0.44981,-0.94391,-9.86501
32.20808,-0.56009,-0.97489,-9.85364
32.21812,-0.65781,-1.03699,-9.85977
32.22816,-0.74789,-1.0322,-9.846
32.2382,-0.81119,-1.09295,-9.74844
32.24823,-0.8887,-1.26833,-9.663
32.25827,-0.92656,-1.36529,-9.56693
32.26831,-0.92506,-1.4033,-9.47311
32.27835,-0.9282,-1.38086,-9.39545
32.28839,-0.92491,-1.30439,-9.28007
32.29842,-0.89004,-1.17495,-9.34801
32.30846,-0.89259,-1.19097,-9.38632
32.3185,-0.84276,-1.2369,-9.499
32.32854,-0.68998,-1.18543,-9.75697
32.33857,-0.32935,-0.81762,-10.25511
32.34861,-0.37559,-0.57296,-10.07959
32.35865,-0.40013,-0.48228,-10.07345
32.36869,-0.35404,-0.66978,-9.98607
32.37872,-0.35285,-0.91548,-9.83029
32.38876,-0.4338,-1.22463,-9.30925
32.3988,-0.49395,-1.47243,-8.94848
32.40884,-0.60484,-1.49323,-9.0034
32.41887,-0.69417,-1.40899,-9.04155
32.42891,-0.69896,-1.41647,-9.09722
32.43895,-0.58134,-1.48605,-9.19777
32.44899,-0.39474,-1.46316,-9.24566
32.45902,-0.32352,-1.32624,-9.12909
32.46906,-0.39325,-1.31771,-9.07597
32.4791,-0.51086,-1.3611,-9.20436
32.48914,-0.49306,-1.30783,-9.33963
32.49917,-0.37484,-1.28075,-9.49181
32.50921,-0.23343,-1.24139,-9.60015
32.51925,-0.18166,-1.17346,-9.60838
32.52929,-0.3114,-1.08757,-9.76819
32.53933,-0.40716,-1.0533,-9.99549
32.54936,-0.32501,-1.321,-9.91678
32.5594,-0.44712,-1.48845,-9.71208
32.57007,-0.44712,-1.48845,-9.71208
32.5801,-0.58284,-1.32803,-9.43884
32.59014,-0.5176,-1.20264,-9.25539
32.60018,-0.36257,-1.2589,-9.38766
32.61022,-0.20605,-1.29601,-9.72944
32.62025,-0.17971,-1.34509,-9.96781
32.63029,-0.40701,-1.55294,-10.03156
32.64033,-0.73607,-1.66966,-9.85214
32.65037,-0.90905,-1.68028,-9.61975
32.6604,-0.91399,-1.58601,-9.32347
32.67044,-0.65047,-1.3225,-9.38557
32.68048,-0.25753,-1.11869,-9.55137
32.69052,0.21338,-1.1338,-9.08719
32.70055,0.48019,-1.09654,-9.38946
32.71059,0.38711,-1.04806,-9.72495
32.72063,0.09667,-0.92491,-9.5572
32.73067,-0.13018,-0.86161,-9.57426
32.74071,-0.16729,-1.05884,-10.33741
32.75074,-0.12091,-1.09849,-10.35163
32.76078,-0.03083,-1.10133,-10.41119
32.77082,0.13797,-1.0316,-10.41957
32.78086,0.42332,-0.83273,-10.2406
32.79089,0.60558,-0.81822,-9.8891
32.80093,0.53017,-0.9701,-9.63531
32.81097,0.27174,-1.08188,-9.50318
32.82101,-0.03726,-1.10552,-9.51411
32.83104,-0.22954,-1.11196,-9.62424
32.84108,-0.13408,-1.22089,-9.65417
32.85112,0.42632,-1.53379,-10.45413
32.86116,0.91937,-1.83411,-11.38458
32.87119,0.54618,-1.41378,-9.36148
32.88123,0.05836,-1.07485,-7.73252
32.89127,-0.30616,-1.20847,-8.03285
32.90131,-0.67068,-1.61459,-9.69307
32.91134,-0.75642,-1.63285,-10.59808
32.92138,-0.54633,-1.31127,-10.50725
32.93142,-0.1839,-1.14413,-9.90257
32.94146,0.07227,-1.24977,-9.16216
32.95149,0.14724,-1.42949,-8.85929
32.96153,0.07407,-1.51942,-9.04739
32.97157,0.02364,-1.3611,-9.39111
32.98161,0.17328,-1.11211,-9.72016
32.99164,0.3916,-0.96307,-9.98921
33.00168,0.66619,-0.87688,-10.25661
33.01172,0.70883,-0.89798,-10.28998
33.02176,0.55426,-1.0744,-10.29148
33.0318,0.33264,-1.22778,-10.28968
33.04183,0.21353,-1.30768,-10.14453
33.05187,0.21039,-1.25666,-9.89763
33.06191,0.3916,-1.08517,-9.61212
33.07195,0.6596,-0.91773,-9.53326
33.08198,0.75567,-0.91488,-9.61751
33.09202,0.78829,-0.98626,-9.77478
33.10206,0.82151,-1.0741,-9.92576
33.1121,0.85608,-1.09699,-10.05445
33.12213,0.82809,-0.97354,-10.08737
33.13217,0.84291,-0.88002,-9.94207
33.14221,0.86146,-0.88705,-9.75413
33.15225,0.763,-0.99015,-9.71073
33.16228,0.59511,-1.13575,-9.77777
33.17232,0.47675,-1.25097,-9.69308
33.18236,0.50832,-1.28733,-9.4776
33.1924,0.56982,-1.29691,-9.43151
33.20243,0.57401,-1.35826,-9.66779
33.21247,0.60573,-1.31831,-9.84945
33.22314,0.60573,-1.31831,-9.84945
33.23317,0.68534,-1.10807,-9.62649
33.24321,0.68848,-1.01394,-9.56424
33.25325,0.54648,-1.09714,-9.72076
33.26329,0.39819,-1.21461,-9.71791
33.27332,0.31499,-1.23182,-9.54838
33.28336,0.32127,-1.25366,-9.41864
33.2934,0.36751,-1.3424,-9.45021
33.30344,0.5176,-1.43009,-9.66824
33.31347,0.63102,-1.33776,-9.70041
33.32351,0.82675,-1.02592,-9.3736
33.33355,0.92132,-0.85907,-9.28142
33.34359,1.00302,-1.17002,-9.34562
33.35363,0.95035,-1.5492,-9.30896
33.36366,0.71572,-1.35781,-9.61362
33.3737,0.62758,-1.21236,-9.76655
33.38374,0.48692,-1.27057,-9.68799
33.39378,0.42362,-1.21132,-9.59611
33.40381,0.58628,-1.11824,-9.26466
33.41385,0.86251,-1.10373,-8.59743
33.42389,0.91788,-1.25561,-8.49642
