t,ax,ay,az
0.0,0.31065,-4.83659,-5.61126
0.01004,0.31065,-4.83659,-5.61126
0.02007,-0.01526,-4.76132,-6.58765
0.03011,-0.87882,-4.82731,-7.12021
0.04015,-1.58526,-5.02543,-7.53066
0.05018,-2.13952,-5.20155,-7.7219
0.06022,-2.57407,-5.2855,-7.86809
0.07025,-2.67492,-5.30331,-8.21376
0.08029,-2.42952,-5.44696,-8.59488
0.09033,-2.00559,-5.50083,-8.67569
0.10036,-1.51852,-5.51011,-8.92932
0.1104,-1.02173,-5.48362,-9.25808
0.12044,-0.7235,-5.43813,-9.52728
0.13047,-0.56234,-5.64687,-9.99415
0.14051,-0.30002,-5.93104,-10.57324
0.15054,-0.05447,-5.81492,-10.9433
0.16058,0.37978,-5.89827,-11.22087
0.17062,0.75013,-5.9882,-11.67577
0.18065,1.24693,-5.25004,-11.97355
0.19069,2.06425,-4.10082,-11.75583
0.20072,2.77069,-3.1361,-11.47271
0.21076,3.11531,-2.73912,-11.56459
0.2208,3.34724,-2.58334,-11.52254
0.23083,3.32076,-2.30412,-11.01707
0.24087,2.92227,-2.22332,-10.41313
0.25091,2.46274,-2.20431,-10.16877
0.26094,1.69674,-2.14491,-9.38542
0.27098,0.72709,-2.20401,-8.33332
0.28101,0.10789,-2.40168,-7.43819
0.29105,-0.24077,-2.50269,-6.82796
0.30109,-0.32397,-2.64529,-6.30363
0.31112,-0.29479,-3.05425,-6.09639
0.32116,-0.5164,-3.62871,-6.11449
0.33119,-0.87553,-4.17668,-6.43142
0.34123,-1.39432,-4.60465,-6.98613
0.35127,-1.38624,-5.02962,-7.71696
0.3613,-1.05569,-5.43678,-8.18278
0.37134,-0.54543,-5.5758,-8.54281
0.38138,-0.01092,-5.52941,-9.03751
0.39141,0.40253,-5.32426,-9.42702
0.40145,0.39774,-4.95016,-9.70594
0.41149,0.03846,-4.5014,-9.84376
0.42152,-0.33668,-4.18327,-9.87803
0.43156,-0.52149,-3.88684,-9.72375
0.44159,-0.60858,-3.54656,-9.40308
0.45163,-0.69881,-3.34724,-9.08839
0.46167,-0.8685,-3.54866,-8.84583
0.4717,-0.96995,-3.69365,-8.36429
0.48174,-0.69013,-3.58442,-7.72384
0.49178,-0.23628,-3.48491,-7.49894
0.50181,0.17178,-3.45184,-7.77173
0.51185,0.39774,-3.44466,-8.52321
0.52188,0.36975,-3.45154,-9.29713
0.53192,0.19707,-3.49778,-9.84062
0.54196,-0.09337,-3.53055,-10.17416
0.55199,-0.22146,-3.68767,-10.33876
0.56203,-0.21682,-3.88803,-10.27786
0.57206,-0.20201,-3.97587,-9.86112
0.5821,-0.18824,-3.89282,-9.41041
0.59214,0.13767,-3.93427,-9.31479
0.60217,0.43814,-4.14092,-9.39335
0.61221,0.80116,-4.43466,-9.54838
0.62225,1.11794,-4.65642,-9.68933
0.63228,1.30289,-4.73184,-9.8487
0.64232,1.22059,-4.69847,-9.69547
0.65235,0.99554,-4.62515,-9.23354
0.66239,0.81747,-4.4583,-8.8551
0.67243,0.77841,-4.27664,-8.63199
0.68246,0.77632,-4.16801,-8.8566
0.6925,0.57117,-4.0049,-9.25658
0.70254,0.32845,-3.84374,-9.19493
0.71257,0.25947,-3.72747,-8.96389
0.72261,0.16565,-3.60791,-8.58815
0.73264,0.10654,-3.53309,-8.09644
0.74268,0.10819,-3.52576,-7.7002
0.75272,0.09682,-3.66777,-7.56134
0.76275,0.13033,-3.62662,-7.58019
0.77279,0.21084,-3.64368,-7.9052
0.78283,0.16759,-3.69934,-8.11006
0.79286,0.12989,-3.676,-8.14567
0.8029,0.22341,-3.65924,-8.11515
0.81293,0.38996,-3.64487,-8.20687
0.82297,0.51011,-3.53324,-8.78687
0.83301,0.40761,-3.32959,-9.24267
0.84304,0.17957,-3.30759,-9.36208
0.85308,0.06404,-3.57933,-9.13732
0.86311,-0.00539,-3.85556,-9.0432
0.87315,-0.04773,-3.86574,-8.99382
0.88319,0.37754,-4.49975,-7.59321
0.89322,0.37754,-4.49975,-7.59321
0.90326,0.48333,-4.14556,-9.17308
0.91329,0.60962,-3.56497,-10.06073
0.92333,0.44397,-3.57005,-9.78705
0.93337,0.18944,-3.85227,-9.1668
0.9434,0.03142,-4.17339,-8.62197
0.95344,0.08425,-4.13239,-8.33362
0.96348,0.26456,-3.93038,-8.52949
0.97351,0.703,-3.75441,-9.24641
0.98355,1.17974,-3.53683,-9.93205
0.99358,1.37203,-3.04812,-10.42585
1.00362,0.78036,-2.705,-10.99911
1.01366,-0.55411,-2.96282,-11.93794
1.02369,-1.15954,-2.38657,-12.9037
1.03373,-1.01679,-2.49925,-13.17275
1.04377,-0.97654,-2.57616,-13.03822
1.0538,-1.07425,-2.63437,-12.23886
1.06384,-1.22838,-2.81259,-11.18481
1.07388,-1.26758,-2.84102,-10.71375
1.08391,-1.0539,-2.85868,-10.27127
1.09395,-0.56817,-2.89788,-9.9922
1.10398,0.06928,-3.00323,-9.85633
1.11402,0.58314,-3.05769,-9.66135
1.12406,0.67322,-2.84042,-10.03724
1.13409,0.54423,-2.76545,-11.15533
1.14413,0.3714,-2.84581,-12.4901
1.15417,0.36407,-2.79598,-13.39316
1.1642,0.55141,-2.77264,-13.79464
1.17424,0.69836,-2.88965,-13.82412
1.18427,0.63895,-3.08418,-13.49312
1.19431,0.43335,-3.23127,-13.08401
1.20435,0.32441,-3.27856,-13.0291
1.21438,0.40911,-3.32345,-13.36578
1.22442,0.51805,-3.28844,-13.86916
1.23445,0.55501,-3.22215,-14.3468
1.24449,0.54693,-3.31612,-14.17577
1.25453,0.42572,-3.50526,-13.47531
1.26456,0.3319,-3.57005,-12.80599
1.2746,0.48123,-3.42281,-12.25652
1.28464,0.76689,-3.33527,-11.79189
1.29467,1.22209,-3.49509,-11.47406
1.30471,1.64302,-3.46067,-11.20023
1.31474,1.91312,-3.14,-10.99866
1.32478,2.16211,-2.80526,-10.26589
1.33482,2.17049,-2.77802,-9.53551
1.34485,1.71634,-3.14448,-10.08677
1.35489,0.69312,-3.57529,-11.83289
1.36492,-0.4766,-3.89866,-13.8717
1.37496,-1.26803,-4.40204,-15.71704
1.385,-1.59259,-4.82836,-16.83228
1.39503,-1.48156,-4.80322,-16.78545
1.40507,-1.03699,-4.41506,-15.86383
1.41511,-0.16715,-3.818,-14.35129
1.42514,0.66185,-2.95085,-12.52078
1.43518,1.41632,-2.30188,-10.99732
1.44522,2.09418,-2.07069,-9.89359
1.45525,2.39704,-2.10959,-9.332
1.46529,2.26147,-2.13653,-9.02255
1.47532,1.88648,-2.46169,-8.68901
1.48536,1.7759,-3.11516,-8.61344
1.4954,1.34554,-3.34979,-8.57947
1.50543,0.87747,-3.55015,-8.36699
1.51547,0.60394,-3.48222,-7.83847
1.5255,0.58329,-3.1364,-7.35424
1.53554,0.71078,-2.85763,-7.32985
1.54558,1.01469,-2.73134,-7.38073
1.55561,1.32579,-2.538,-7.26969
1.56565,1.41797,-2.29529,-7.49774
1.57569,1.41886,-2.05557,-8.04886
1.58572,1.32684,-1.97462,-8.40499
1.59576,1.28883,-2.0011,-8.4867
1.60579,1.30484,-2.09328,-8.547
1.61583,1.26803,-2.26686,-8.54835
1.62587,1.22793,-2.44867,-8.36444
1.6359,1.23451,-2.49236,-7.83712
1.64594,1.25172,-2.42173,-7.29798
1.65598,1.29107,-2.31489,-6.9791
1.66601,1.30304,-2.24456,-6.68416
1.67605,1.21162,-2.18965,-6.44295
1.68608,1.15909,-2.15373,-6.33281
1.69612,1.05165,-2.13608,-6.40688
1.70616,0.91384,-2.0635,-6.5043
1.71619,0.76854,-1.92314,-6.55069
1.72623,0.65437,-1.93062,-6.43382
1.73627,0.5375,-2.21194,-6.19993
1.7463,0.30451,-2.43146,-6.03339
1.75634,0.04489,-2.62629,-6.16761
1.76637,-0.20096,-2.63572,-6.41003
1.77641,-0.37469,-2.56284,-6.62371
1.78645,-0.44951,-2.47695,-6.79011
1.79648,-0.4766,-2.51616,-7.0213
1.80652,-0.51969,-2.68869,-7.10838
1.81656,-0.5794,-2.76096,-7.00065
1.82659,-0.60274,-2.82097,-6.90996
1.83663,-0.53705,-2.74974,-6.84906
1.84666,-0.26291,-2.64215,-6.82512
1.8567,0.12181,-2.58454,-6.87525
1.86674,0.31978,-2.6426,-6.94797
1.87677,0.38412,-2.74271,-6.96398
1.88681,0.25184,-2.82576,-6.87929
1.89685,0.04414,-2.82276,-6.60141
1.90688,0.00075,-2.78191,-6.31276
1.91692,0.17074,-2.81498,-6.26114
1.92695,0.48318,-2.76141,-6.89395
1.93699,0.7,-2.70979,-7.76185
1.94703,0.71706,-2.68255,-8.1744
1.95706,0.60394,-2.6423,-8.30923
1.9671,0.50263,-2.64679,-8.17321
1.97714,0.50667,-2.77922,-7.83921
1.98717,0.54303,-2.89249,-7.63331
1.99721,0.60079,-2.87379,-7.60638
2.00724,0.66319,-2.86795,-7.70439
2.01728,0.6831,-2.91434,-7.77532
2.02732,0.68295,-2.9314,-7.62015
2.03735,0.70315,-3.01894,-7.42352
2.04739,0.75806,-2.99425,-7.38192
2.05743,0.96875,-2.94472,-7.21418
2.06746,1.66861,-3.00308,-6.80537
2.0775,1.95696,-2.8494,-7.15507
2.08753,1.9013,-2.76141,-7.77891
2.09757,1.76303,-3.0773,-8.40604
2.10761,1.28464,-3.39483,-9.02824
2.11764,0.67561,-3.63784,-9.40996
2.12768,0.31529,-3.8415,-9.87174
2.13772,0.28835,-4.07508,-9.96182
2.14775,0.5571,-4.42044,-9.17308
2.15779,0.91713,-4.31106,-8.48131
2.16782,1.14144,-3.56197,-8.18188
2.17786,1.26159,-2.71054,-8.16438
2.1879,1.4871,-2.34198,-8.51094
2.19793,1.66352,-2.4569,-8.96688
2.20797,1.70602,-2.61207,-9.41699
2.21801,1.76692,-2.88217,-9.98113
2.22804,1.67145,-3.03345,-10.47882
2.23808,1.39417,-2.79314,-10.56771
2.24811,1.21685,-2.41021,-10.26424
2.25815,1.04806,-1.92,-9.4152
2.26819,1.03863,-1.6499,-8.75949
2.27822,1.17017,-2.0424,-9.20331
2.28826,1.08218,-2.46438,-10.03006
2.2983,0.89902,-2.58304,-10.32514
2.30833,0.68474,-2.3722,-10.09006
2.31837,0.56937,-2.22586,-9.79288
2.3284,0.77288,-2.27344,-9.49451
2.33844,0.75732,-2.07473,-9.496
2.34848,0.57326,-1.71664,-9.96437
2.35851,0.44008,-1.63285,-10.71076
2.36855,-0.03053,-1.92269,-11.82376
2.37859,-0.03053,-1.92269,-11.82376
2.38862,-0.26082,-2.13488,-11.92462
2.39866,-0.37454,-2.32582,-11.06121
2.40869,-0.29568,-2.36787,-10.77615
2.41873,-0.24181,-2.3523,-10.40445
2.42877,-0.25842,-2.20446,-10.12972
2.4388,-0.30795,-1.92509,-9.67123
2.44884,-0.27503,-1.78323,-9.27798
2.45887,-0.19603,-1.76647,-9.02988
2.46891,-0.27503,-1.7973,-8.91092
2.47895,-0.45654,-1.84608,-8.93755
2.48898,-0.68684,-1.8802,-9.35729
2.49902,-1.0117,-1.92643,-9.92217
2.50906,-1.25711,-2.0216,-10.17685
2.51909,-1.47782,-2.04734,-10.24269
2.52913,-1.69076,-2.01233,-10.15246
2.53916,-1.79685,-2.01786,-9.90391
2.5492,-1.75211,-2.11408,-9.58459
2.55924,-1.57748,-2.2088,-9.15288
2.56927,-1.31502,-2.25758,-8.9413
2.57931,-1.06018,-2.2727,-8.91481
2.58935,-0.82286,-2.19114,-9.01073
2.59938,-0.67741,-2.06171,-9.06939
2.60942,-0.53451,-1.95606,-8.97167
2.61945,-0.39834,-1.8986,-8.8569
2.62949,-0.36601,-1.92165,-8.83041
2.63953,-0.43799,-2.00948,-8.93351
2.64956,-0.49889,-2.16152,-8.99891
2.6596,-0.51864,-2.29828,-9.01118
2.66964,-0.44083,-2.35155,-9.16695
2.67967,-0.23029,-2.29649,-9.16081
2.68971,-0.1254,-2.16286,-8.88877
2.69974,-0.1251,-2.12036,-8.752
2.70978,-0.07108,-2.12141,-8.73465
2.71982,-0.07168,-2.04151,-8.89221
2.72985,-0.08395,-1.94664,-9.21124
2.73989,-0.27892,-1.93466,-9.19553
2.74993,-0.37978,-2.07353,-9.19463
2.75996,-0.28311,-2.31849,-9.13373
2.77,-0.19004,-2.59711,-9.04275
2.78003,-0.19872,-2.78236,-8.97811
2.79007,-0.28386,-2.82127,-9.00953
2.80011,-0.37679,-2.77323,-9.14794
2.81014,-0.41913,-2.69482,-9.3311
2.82018,-0.40447,-2.6031,-9.36746
2.83022,-0.36766,-2.55895,-9.2696
2.84025,-0.30272,-2.48728,-9.17712
2.85029,-0.21997,-2.36023,-9.14795
2.86032,-0.17493,-2.20027,-9.30536
2.87036,-0.18869,-1.95472,-9.65462
2.8804,-0.1863,-1.71425,-9.98472
2.89043,-0.01751,-1.58825,-10.21142
2.90047,0.22221,-1.54815,-10.15516
2.91051,0.47076,-1.60412,-9.88641
2.92054,0.59286,-1.68971,-9.66943
2.93058,0.65586,-1.87646,-9.44812
2.94061,0.73637,-2.05228,-9.16874
2.95065,0.73921,-2.15792,-8.98783
2.96069,0.58194,-2.30562,-8.96733
2.97072,0.46103,-2.26611,-9.13298
2.98076,0.60199,-1.72502,-9.23025
2.9908,0.76884,-1.23316,-8.64022
3.00083,0.74849,-1.70318,-8.12158
3.01087,0.87658,-1.72966,-7.97883
3.0209,1.09984,-1.34853,-8.56017
3.03094,0.98402,-2.18396,-9.98801
3.04098,0.54827,-2.93888,-11.11373
3.05101,-0.24391,-3.2639,-11.55532
3.06105,-0.88152,-3.55748,-10.99118
3.07109,-1.14413,-3.53369,-9.88012
3.08112,-1.17032,-3.33886,-8.81425
3.09116,-1.06168,-3.10827,-8.01354
3.10119,-0.87837,-3.00547,-8.07295
3.11123,-0.7437,-2.94936,-8.64816
3.12127,-0.46462,-2.81349,-9.25164
3.1313,-0.30541,-2.35096,-9.89374
3.14134,0.23059,-1.32115,-11.66201
3.15138,1.0747,0.16056,-11.83559
3.16141,1.96773,0.53451,-9.2075
3.17145,2.27718,1.31726,-8.41023
3.18148,2.2501,1.39971,-8.98753
3.19152,1.71485,0.08739,-10.9623
3.20156,1.14592,-0.48946,-11.23225
3.21159,0.80041,-1.0717,-10.97442
3.22163,0.56383,-1.75196,-10.43243
3.23167,0.60439,-2.43625,-9.65043
3.2417,0.86206,-3.46052,-8.7107
3.25174,0.85922,-3.68034,-7.64768
3.26177,0.67442,-3.02044,-7.05511
3.27181,0.61112,-2.50598,-7.46407
3.28185,0.55201,-1.86583,-8.47742
3.29188,0.67112,-1.07275,-9.64968
3.30192,1.01858,-0.79009,-9.79049
3.31196,1.43039,-0.94272,-9.66913
3.32199,1.69539,-1.3626,-9.7028
3.33203,1.66277,-1.77051,-9.47655
3.34206,1.41123,-1.92329,-9.13957
3.3521,1.01514,-1.74103,-9.10754
3.36214,0.65481,-1.36679,-9.39754
3.37217,0.38846,-1.23331,-9.82341
3.38221,0.15128,-1.54426,-10.56786
3.39225,-0.10295,-1.78069,-10.47014
3.40228,-0.23523,-1.87825,-10.02916
3.41232,-0.2484,-1.90085,-9.9114
3.42235,-0.31618,-1.92075,-9.62454
3.43239,-0.27848,-1.76483,-9.81727
3.44243,-0.04624,-1.39687,-10.81117
3.45246,0.14051,-0.99329,-11.95126
3.4625,-0.45161,-1.06751,-11.39415
3.47254,-1.2803,-1.70871,-11.31724
3.48257,-1.52526,-2.47171,-11.62131
3.49261,-1.62132,-2.57511,-11.73952
3.50264,-1.094,-1.95756,-11.96038
3.51268,-0.19677,-1.20548,-11.82481
3.52272,0.24885,-1.05285,-11.22297
3.53275,0.25259,-1.51777,-10.49319
3.54279,-0.31349,-2.16705,-9.40667
3.55283,-1.00946,-2.64933,-8.1364
3.56286,-1.34509,-2.6019,-7.33838
3.5729,-1.0949,-2.35141,-7.31249
3.58293,-0.58149,-2.15269,-7.6179
3.59297,-0.32786,-1.98015,-7.32446
3.60301,-0.41345,-2.09867,-7.44357
3.61304,-0.7012,-2.96971,-8.64067
3.62308,-1.28913,-3.58681,-10.41508
3.63312,-1.88633,-2.07143,-10.05206
3.64315,-1.3412,-1.24409,-9.1035
3.65319,-0.27743,-1.79655,-9.0637
3.66322,-0.01392,-1.66711,-8.91825
3.67326,-0.17298,-1.4446,-8.64382
3.6833,-0.50727,-1.86463,-8.7535
3.69333,-1.09984,-2.61596,-9.08435
3.70337,-1.5914,-3.08568,-9.01985
3.71341,-1.67549,-2.88292,-8.5886
3.72344,-1.18558,-2.28422,-8.29501
3.73348,-0.59331,-1.65035,-8.67823
3.74352,-0.2083,-0.97504,-9.10904
3.75355,0.17747,-0.4525,-9.68784
3.76359,0.67681,-0.54663,-10.1779
3.77362,1.71619,-1.11839,-10.34086
3.78366,1.37771,-1.41063,-9.4779
3.7937,0.05492,-1.99123,-8.6911
3.80373,-2.44687,-1.61998,-7.82784
3.81377,-2.40363,-1.70362,-10.66422
3.82381,-0.09667,-1.5688,-12.02338
3.83384,-0.70809,-1.30379,-11.43905
3.84388,-1.02412,-1.68612,-9.95748
3.85391,-0.68893,-1.24558,-10.68128
3.86395,-0.48991,-0.31319,-11.34029
3.87399,-0.77797,0.07991,-10.04936
3.88402,-1.27162,-0.11806,-10.04772
3.89406,-1.8175,-0.74385,-12.24829
3.9041,-1.68522,0.58014,-13.56435
3.91413,-2.92138,0.15502,-15.3196
3.92417,-3.62003,-1.52047,-15.93401
3.9342,-3.68632,-2.24097,-16.73023
3.94424,-4.54973,-2.14296,-16.42362
3.95428,-5.02064,-1.74448,-15.297
3.96431,-4.76581,-1.47199,-14.2473
3.97435,-4.22262,-1.82663,-14.36072
3.98439,-3.79496,-2.82576,-15.96319
3.99442,-4.03049,-2.8684,-17.04746
4.00446,-4.64385,-2.15089,-17.13366
4.01449,-4.94657,-1.42231,-17.15565
4.02453,-4.85544,-0.73008,-16.69148
4.03457,-4.48165,-0.36212,-15.80682
4.0446,-4.26333,-0.35733,-14.36177
4.05464,-4.25569,-1.00661,-13.20627
4.06468,-4.50948,-1.75495,-13.64755
4.07471,-4.76641,-1.49952,-14.49046
4.08475,-4.27185,-0.18525,-14.55465
4.09478,-3.03839,1.13979,-13.98752
4.10482,-1.29571,1.58167,-13.16631
4.11486,-0.06015,1.56551,-12.02488
4.12489,0.76779,1.20368,-10.30689
4.13493,0.97145,0.62893,-9.68619
4.14497,0.10968,0.15263,-11.03488
4.155,-1.23092,-0.42826,-10.31048
4.16504,-1.22838,0.30915,-11.14276
4.17507,-0.01811,1.24035,-14.18145
4.18511,-0.17642,1.03205,-15.94613
4.19515,-0.25349,2.09582,-12.7783
4.20518,0.28566,3.52666,-9.91963
4.21522,0.80176,3.97602,-9.07567
4.22526,1.40719,3.78927,-8.58995
4.23529,2.56269,3.35742,-8.22244
4.24533,3.18848,3.10468,-7.51121
4.25536,3.26315,2.97928,-5.55993
4.2654,2.96253,2.68764,-3.64023
4.27544,1.42919,1.26668,-2.78999
4.28547,0.15742,-0.86625,-3.75545
4.29551,0.14305,-1.92599,-4.73917
4.30555,0.57985,-1.7982,-5.41374
4.31558,0.97294,-1.22329,-5.8022
4.32562,1.39941,-0.6611,-5.77377
4.33565,1.52945,-0.80131,-5.39922
4.34569,1.36006,-1.16822,-4.92203
4.35573,1.37412,-1.4443,-4.46713
4.36576,1.60561,-1.53887,-4.28652
4.3758,1.90683,-1.43532,-4.47476
4.38584,2.32148,-1.30185,-5.00119
4.39587,2.74854,-1.14652,-5.34131
4.40591,2.96582,-1.00227,-5.1833
4.41594,2.78176,-1.28524,-4.53177
4.42598,2.25788,-1.59603,-3.78538
4.43602,1.38101,-1.64676,-4.39141
4.44605,0.3081,-2.12381,-6.09115
4.45609,-0.34791,-2.53381,-7.47978
4.46613,-0.33743,-2.54728,-7.98706
4.47616,-0.04265,-2.55491,-7.42981
4.4862,0.16206,-2.57422,-6.61802
4.49623,0.27234,-2.79358,-5.95573
4.50627,0.19632,-3.34111,-5.79517
4.51631,-0.01526,-3.67405,-6.15938
4.52634,-0.1432,-3.52471,-6.84487
4.53638,-0.05237,-3.17097,-7.21223
4.54642,0.02035,-2.77159,-7.05736
4.55645,0.13138,-2.58993,-7.4108
4.56649,0.11178,-2.82052,-7.69377
4.57652,-0.13527,-2.97599,-7.75721
4.58656,-0.51176,-2.95669,-8.14911
4.5966,-0.6807,-2.94547,-8.30683
4.60663,-0.81478,-3.08583,-8.01205
4.61667,-1.03534,-3.45274,-7.78026
4.62671,-1.21326,-3.74678,-7.53665
4.63674,-1.31801,-3.71251,-7.45943
4.64678,-1.46854,-3.60672,-7.6785
4.65682,-1.65424,-3.59923,-8.04542
4.66685,-1.70781,-3.58621,-8.45617
4.67689,-1.7542,-3.59355,-8.35053
4.68692,-1.80238,-3.53459,-7.89264
4.69696,-1.81735,-3.48461,-7.5371
4.707,-1.8787,-3.50481,-7.44791
4.71703,-1.99497,-3.62063,-7.63631
4.72707,-2.05333,-3.66762,-7.76574
4.73711,-2.08655,-3.87382,-7.45988
4.74714,-2.00036,-3.69321,-7.33449
4.75718,-1.89142,-3.36101,-6.94229
4.76721,-1.84608,-3.04887,-7.00603
4.77725,-1.84249,-2.84162,-7.26057
4.78729,-1.90264,-2.68719,-7.59141
4.79732,-1.94304,-2.5591,-7.75272
4.80736,-1.90982,-2.582,-7.54503
4.8174,-2.01861,-2.78027,-6.99077
4.82743,-2.21164,-2.81588,-6.6481
4.83747,-2.2103,-2.65472,-6.50879
4.8475,-2.11812,-2.46378,-6.52255
4.85754,-2.04824,-2.32911,-6.71723
4.86758,-1.95382,-2.23918,-6.99197
4.87761,-1.79011,-2.23469,-7.07726
4.88765,-1.41303,-2.29873,-6.87749
4.89769,-0.99958,-2.13697,-6.38174
4.90772,-0.71886,-1.78518,-6.15235
4.91776,-0.98043,-1.68118,-5.90111
4.92779,-1.44116,-1.74702,-5.75596
4.93783,-1.79131,-1.62028,-5.77556
4.94787,-1.96729,-1.48246,-5.6578
4.9579,-1.92105,-1.58526,-5.7392
4.96794,-1.68118,-1.87062,-5.84694
4.97798,-1.27132,-2.29619,-5.89557
4.98801,-0.92267,-2.74555,-6.12033
4.99805,-0.98506,-3.22245,-6.36843
5.00808,-1.25441,-3.51603,-5.92655
5.01812,-1.37367,-3.45573,-5.48586
5.02816,-1.34764,-3.19237,-5.20095
5.03819,-1.22239,-2.88112,-4.93879
5.04823,-1.04133,-2.73747,-5.04099
5.05827,-0.69312,-2.89025,-5.40087
5.0683,-0.00539,-2.99305,-5.74369
5.07834,0.29149,-3.0553,-6.8748
5.08837,-0.19767,-3.40396,-7.59201
5.09841,-0.3503,-3.31343,-7.63002
5.10845,0.28192,-2.55641,-7.74375
5.11848,0.92745,-1.81301,-7.69706
5.12852,1.00063,-1.24992,-7.71756
5.13856,0.67322,-0.82361,-8.73734
5.14859,0.3286,-0.77647,-10.6545
5.15863,-0.15697,-0.80984,-12.29452
5.16867,-0.25244,-0.73741,-13.22692
5.1787,0.28895,-0.43874,-13.37072
5.18874,0.67472,0.2665,-12.74673
5.19877,0.77198,0.80954,-12.22659
5.20881,0.83184,0.6795,-12.18948
5.21885,0.47016,0.05701,-11.98552
5.22888,-0.25199,-0.90965,-11.50608
5.23892,-0.79637,-1.86823,-11.36004
5.24896,-0.9517,-2.59741,-11.35944
5.25899,-1.03669,-2.77204,-10.51399
5.26903,-1.04462,-2.37939,-10.67081
5.27906,-0.87463,-1.85985,-12.12543
5.2891,-0.83558,-1.46405,-13.18397
5.29914,-0.92715,-1.37786,-13.88951
5.30917,-1.03504,-1.3011,-13.89191
5.31921,-1.10373,-1.16657,-13.50494
5.32925,-1.02247,-1.05495,-13.25101
5.33928,-0.98087,-0.91623,-13.55492
5.34932,-1.14218,-0.76181,-14.31373
5.35935,-1.46301,-0.71916,-15.16831
5.36939,-1.69958,-0.9071,-15.62815
5.37943,-1.72831,-0.96696,-15.57099
5.38946,-1.62656,-0.89438,-15.24104
5.3995,-1.36604,-0.62309,-14.44497
5.40954,-0.79487,-0.33788,-13.99755
5.41957,-0.16924,-0.16804,-13.55043
5.42961,-0.07527,-0.27399,-13.42878
5.43964,-0.65856,-0.60962,-13.32972
5.44968,-1.59005,-1.1374,-13.23111
5.45972,-2.42173,-1.60157,-13.36503
5.46975,-2.69812,-1.69315,-13.38733
5.47979,-2.40483,-1.27446,-13.24502
5.48983,-1.7958,-0.47345,-13.04077
5.49986,-1.32205,0.10385,-12.95607
5.5099,-1.28299,0.17418,-12.81676
5.51993,-1.61175,-0.2873,-12.37802
5.52997,-2.12845,-0.92985,-11.71513
5.54001,-2.41859,-1.42829,-10.91277
5.55004,-2.24127,-1.66173,-9.90317
5.56008,-1.81525,-1.56775,-9.27364
5.57012,-1.58137,-1.37442,-9.33095
5.58015,-1.53872,-1.35183,-9.56124
5.59019,-1.52166,-1.49967,-9.72121
5.60023,-1.52376,-1.58062,-9.68065
5.61026,-1.47917,-1.49129,-9.5575
5.6203,-1.28,-1.31651,-9.53266
5.63033,-1.03385,-1.1555,-9.50363
5.64037,-0.90875,-0.99733,-9.66285
5.65041,-0.89034,-0.93628,-9.7028
5.66044,-1.15251,-1.12707,-9.65596
5.67048,-1.21521,-1.46585,-9.1671
5.68052,-0.81837,-1.37442,-8.56705
5.69055,-0.17014,-0.9704,-8.31491
5.70059,0.3931,-0.43709,-8.72357
5.71062,0.517,-0.05806,-9.49705
5.72066,0.38113,-0.1429,-10.14737
5.7307,0.15278,-0.55082,-10.12598
5.74073,-0.05836,-0.86087,-9.61526
5.75077,-0.26815,-0.96546,-8.98634
5.76081,-0.30212,-1.09864,-8.70532
5.77084,-0.10879,-1.22703,-8.90089
5.78088,0.16266,-1.31726,-9.25374
5.79091,0.24421,-1.42246,-9.35445
5.80095,0.13602,-1.70572,-8.82847
5.81099,0.01646,-2.15134,-8.25611
5.82102,-0.09307,-2.45989,-7.91269
5.83106,0.12106,-2.4168,-8.23097
5.8411,0.90695,-2.07383,-8.81216
5.85113,1.68462,-1.47543,-9.4776
5.86117,1.93332,-0.86251,-10.62487
5.8712,1.81047,-0.92252,-11.44069
5.88124,1.9007,-1.6743,-11.30632
5.89128,2.65996,-2.27524,-10.52566
5.90131,3.89896,-2.1488,-9.38228
5.91135,5.32934,-1.30529,-8.49403
5.92139,6.3388,0.02394,-8.3595
5.93142,6.34179,1.07051,-9.41445
5.94146,5.99059,1.2381,-10.62726
5.9515,5.73097,0.86221,-11.20337
5.96153,5.555,0.53735,-11.50833
5.97157,5.08903,0.56129,-11.15937
5.9816,4.34832,0.52583,-10.57055
5.99164,3.84838,0.38382,-10.47119
6.00168,3.06682,0.04295,-11.03772
6.01171,2.26447,-0.80146,-11.05478
6.02175,1.60292,-1.50775,-10.2204
6.03179,0.96037,-1.38475,-9.43465
6.04182,0.38607,-0.21937,-9.40831
6.05186,-0.12644,1.02247,-10.62532
6.06189,-0.38726,1.30514,-11.30976
6.07193,-0.31349,0.60648,-11.02066
6.08197,-0.25887,-0.44667,-10.22773
6.092,-0.91414,-1.25321,-9.6226
6.10204,-2.09119,-1.88528,-9.65716
6.11208,-3.08283,-2.2908,-9.97095
6.12211,-3.08717,-2.10435,-9.62334
6.13215,-2.37265,-1.1359,-8.80468
6.14218,-2.23214,-0.15098,-8.80872
6.15222,-2.59861,0.27384,-9.56065
6.16226,-3.21377,-0.08365,-10.64088
6.17229,-3.635,-0.95259,-11.211
6.18233,-3.52546,-1.71051,-10.74233
6.19237,-2.68121,-1.70961,-9.57381
6.2024,-2.05827,-0.9071,-8.75051
6.21244,-1.98449,-0.13722,-8.85181
6.22247,-2.02385,-0.08275,-8.95805
6.23251,-2.6426,-0.53899,-9.22112
6.24255,-3.52456,-1.25112,-9.87578
6.25258,-4.08271,-1.84967,-9.86621
6.26262,-4.07269,-2.03597,-9.23623
6.27266,-3.56167,-1.97851,-8.49119
6.28269,-2.96163,-1.71814,-7.73596
6.29273,-3.1171,-1.29571,-7.65726
6.30277,-3.56601,-1.17316,-8.7333
6.3128,-3.84718,-1.44505,-10.05819
6.32284,-3.58023,-1.67908,-10.39009
6.33287,-2.86646,-1.72353,-9.88416
6.34291,-2.00874,-1.56162,-8.7526
6.35357,-2.00874,-1.56162,-8.7526
6.36361,-1.82558,-1.32429,-9.3109
6.37365,-1.5685,-1.13964,-9.98906
6.38368,-1.33073,-0.97968,-10.69774
6.39372,-1.18752,-0.85293,-11.15533
6.40376,-1.02696,-0.76749,-11.02245
6.41379,-0.88705,-0.73322,-10.5291
6.42383,-0.79383,-0.75193,-10.24913
6.43386,-0.78201,-0.78081,-10.48645
6.4439,-0.83258,-0.75552,-11.05852
6.45394,-0.65272,-0.7826,-11.32218
6.46397,-0.3322,-0.74819,-10.97308
6.47401,0.00988,-0.59391,-10.27113
6.48405,0.1649,-0.41225,-9.91738
6.49408,0.26067,-0.43425,-10.00672
6.50412,0.23598,-0.56533,-10.03275
6.51415,-0.01856,-0.63147,-10.14348
6.52419,-0.23089,-0.68115,-10.40251
6.53423,-0.28401,-0.71721,-10.58641
6.54426,-0.15772,-0.82884,-10.49274
6.5543,-0.06719,-0.98536,-10.06807
6.56434,-0.29928,-1.18049,-9.52458
6.57437,-0.44188,-1.11226,-9.2913
6.58441,-0.29329,-0.86087,-9.70983
6.59444,-0.15113,-0.60079,-9.96167
6.60448,0.02394,-0.40342,-10.12134
6.61452,0.28117,-0.4142,-10.10293
6.62455,0.36916,-0.48318,-9.86665
6.63459,0.13841,-0.53061,-9.66644
6.64463,-0.1646,-0.66873,-9.84062
6.65466,-0.39085,-0.87059,-10.01554
6.6647,-0.47525,-0.94406,-9.95853
6.67474,-0.48931,-0.93628,-9.75323
6.68477,-0.35329,-1.0102,-9.56065
6.69481,-0.15054,-0.91848,-9.47086
6.70484,-0.019,-0.77123,-9.55122
6.71488,-0.19752,-0.70988,-9.56573
6.72492,-0.44263,-0.87718,-9.62424
6.73495,-0.49036,-1.00317,-9.71163
6.74499,-0.31888,-0.92566,-9.7878
6.75503,0.02454,-0.73652,-9.89404
6.76506,0.27758,-0.54363,-9.98038
6.7751,0.32307,-0.47839,-10.04278
6.78513,0.26725,-0.56683,-9.93953
6.79517,0.17912,-0.82301,-9.62544
6.80521,-0.03726,-1.02053,-9.31524
6.81524,-0.18959,-1.08442,-9.51994
6.82528,-0.17178,-1.05779,-9.79228
6.83532,-0.08918,-0.93149,-9.84376
6.84535,0.06434,-0.79637,-9.82491
6.85539,0.06,-0.79622,-9.87384
6.86542,-0.12315,-0.91369,-9.953
6.87546,-0.29329,-1.06093,-9.98457
6.8855,-0.42617,-1.09191,-10.10039
6.89553,-0.41495,-1.10881,-10.1583
6.90557,-0.34102,-1.10118,-10.10248
6.91561,-0.23837,-1.02547,-10.04397
6.92564,-0.10894,-0.86311,-9.99893
6.93568,0.00509,-0.66649,-9.90781
6.94572,-0.00254,-0.49395,-9.95165
6.95575,-0.08993,-0.3934,-9.9925
6.96579,-0.09622,-0.33938,-9.95958
6.97582,-0.0835,-0.28341,-10.04338
6.98586,-0.12405,-0.25723,-10.10159
6.9959,-0.15398,-0.3087,-10.19421
7.00593,-0.26965,-0.29105,-10.23791
7.01597,-0.26366,-0.13587,-10.13585
7.02663,-0.05626,-0.05581,-10.03589
7.03667,0.1878,-0.02753,-9.80545
7.04671,0.29149,-0.06045,-9.48717
7.05674,0.28177,-0.27937,-9.09527
7.06678,0.20306,-0.54887,-8.61434
7.07681,0.08664,-0.87613,-8.34948
7.08685,-0.03472,-1.04986,-8.34379
7.09689,-0.09891,-1.06288,-8.53099
7.10692,-0.10864,-1.18752,-8.73165
7.11696,-0.08006,-1.28299,-8.82338
7.127,-0.0841,-1.33237,-8.85795
7.13703,-0.10385,-1.47857,-8.87022
7.14707,-0.16445,-1.64946,-8.95372
7.1571,-0.09487,-1.52391,-9.24177
7.16714,0.1245,-1.19875,-9.45171
7.17718,0.31603,-0.84964,-9.61975
7.18721,0.35584,-0.5785,-9.6627
7.19725,0.27129,-0.50787,-9.69233
7.20729,0.39834,-0.57296,-9.71657
7.21732,0.56907,-0.59421,-9.59192
7.22736,0.659,-0.44861,-9.48014
7.2374,0.64464,-0.2481,-9.56543
7.24743,0.41839,-0.08933,-9.74335
7.25747,0.24825,-0.0422,-10.04981
7.2675,0.13692,-0.05926,-10.26993
7.27754,0.13692,-0.17433,-10.177
7.28758,0.2273,-0.35763,-9.94252
7.29761,0.33459,-0.53002,-9.73991
7.30765,0.34596,-0.60379,-9.54718
7.31769,0.41794,-0.58987,-9.537
7.32772,0.47989,-0.60543,-9.58085
7.33776,0.39609,-0.55067,-9.79109
7.34779,0.36332,-0.54902,-10.02722
7.35783,0.38607,-0.66813,-9.9319
7.36787,0.35853,-0.82585,-9.67557
7.3779,0.31559,-0.96142,-9.46607
7.38794,0.35195,-0.92671,-9.48433
7.39798,0.40312,-0.80939,-9.61541
7.40801,0.44921,-0.68459,-9.76565
7.41805,0.4335,-0.58329,-10.05849
7.42808,0.34521,-0.50368,-10.47224
7.43812,0.4341,-0.50054,-10.57175
7.44816,0.69192,-0.53406,-10.31691
7.45819,0.92087,-0.50233,-9.86112
7.46823,0.908,-0.42228,-9.58294
7.47827,0.78335,-0.38262,-9.69322
7.4883,0.58029,-0.41824,-9.83523
7.49834,0.2478,-0.32292,-10.06732
7.50838,0.00075,-0.309,-10.44785
7.51841,-0.03711,-0.27638,-10.59883
7.52845,0.07467,-0.20022,-10.42196
7.53848,0.28446,-0.19962,-10.1969
7.54852,0.42946,-0.30736,-9.95644
7.55856,0.3111,-0.394,-9.8282
7.56859,0.04474,-0.49395,-9.79707
7.57863,-0.18211,-0.64718,-9.79034
7.58867,-0.3087,-0.64748,-9.91319
7.5987,-0.26052,-0.53151,-10.06029
7.60874,-0.00314,-0.39654,-10.04023
7.61877,0.25783,-0.24885,-9.90436
7.62881,0.43859,-0.17298,-9.67228
7.63885,0.56339,-0.20485,-9.45575
7.64888,0.65601,-0.31035,-9.21977
7.65892,0.65018,-0.353,-9.1867
7.66896,0.59541,-0.31663,-9.47221
7.67899,0.48288,-0.28027,-9.76385
7.68903,0.38412,-0.28581,-9.79962
7.69907,0.36856,-0.36497,-9.56364
7.7091,0.36197,-0.40073,-9.36731
7.71914,0.35644,-0.37888,-9.36537
7.72917,0.45625,-0.27025,-9.5385
7.73921,0.5583,-0.14605,-9.70729
7.74925,0.47166,-0.14395,-9.76789
7.75928,0.26875,-0.25289,-9.81937
7.76932,0.18001,-0.39325,-9.86261
7.77936,0.17193,-0.3934,-9.76176
7.78939,0.20485,-0.36257,-9.59357
7.79943,0.17942,-0.34581,-9.64444
7.80946,0.08395,-0.36182,-9.76954
7.8195,-0.07242,-0.38846,-9.85723
7.82954,-0.16939,-0.38173,-9.95584
7.83957,-0.26695,-0.37305,-9.88656
7.84961,-0.21398,-0.38068,-9.81623
7.85965,-0.03142,-0.31035,-9.7022
7.86968,0.11642,-0.2279,-9.54763
7.87972,0.2282,-0.19169,-9.4538
7.88976,0.25169,-0.12405,-9.4158
7.89979,0.15233,0.00374,-9.56154
7.90983,0.00628,0.12106,-9.75517
7.91986,-0.06749,0.09697,-9.77867
7.9299,0.06449,0.15981,-9.70116
7.93994,0.35389,0.2475,-9.65178
7.94997,0.73652,0.10579,-9.81802
7.96001,0.94571,-0.1848,-9.94028
7.97005,0.81867,-0.26845,-9.97948
7.98008,0.48483,-0.14216,-9.96886
7.99012,0.13961,0.05611,-10.06418
8.00015,0.01945,0.09457,-10.14857
8.01019,0.14949,-0.05387,-9.94671
8.02023,0.23388,-0.19019,-9.59386
8.03026,0.21069,-0.25184,-9.33858
8.0403,0.06315,-0.27773,-9.44303
8.05034,0.00524,-0.23343,-9.62409
8.06037,0.08784,-0.18375,-9.73871
8.07041,0.26082,-0.18944,-9.75143
8.08045,0.31214,-0.1658,-9.85049
8.09048,0.1646,-0.16535,-9.93309
8.10052,-0.11387,-0.23403,-9.87249
8.11055,-0.42677,-0.33564,-9.73557
8.12059,-0.63282,-0.42332,-9.69053
8.13063,-0.57985,-0.42153,-9.79094
8.14066,-0.30661,-0.33818,-9.87429
8.1507,-0.07706,-0.08155,-9.85438
8.16074,0.02948,0.15428,-9.9907
8.17077,-0.02274,0.21862,-10.1981
8.18081,-0.20635,0.11851,-10.18852
8.19085,-0.45101,-0.06629,-9.99654
8.20088,-0.62429,-0.07018,-9.84196
8.21092,-0.57147,0.16595,-10.16982
8.22095,-0.30332,0.50772,-10.84858
8.23099,0.03083,0.58897,-11.58375
8.24103,0.38083,0.39459,-12.06782
8.25106,0.45954,0.21024,-11.70241
8.2611,0.42078,0.22042,-11.14965
8.27114,0.67172,0.37709,-11.11867
8.28117,1.02023,0.68384,-11.54035
8.29121,1.17017,0.76779,-12.17018
8.30124,0.92431,0.50607,-12.31562
8.31128,0.4944,0.11253,-12.11346
8.32132,0.02978,-0.05387,-11.96173
8.33135,-0.05237,-0.11672,-11.68385
8.34139,0.02619,-0.19258,-11.12765
8.35143,0.0841,-0.32426,-10.43483
8.36146,0.25558,-0.30077,-9.8879
8.3715,-0.19932,0.00509,-9.88087
8.38154,-1.38026,0.33324,-10.6961
8.39157,-2.07817,0.09068,-11.1685
8.40161,-1.96265,-0.55635,-11.29839
8.41164,-1.47199,-0.89977,-11.23494
8.42168,-0.70689,-0.79308,-10.96036
8.43172,-0.13138,-0.32561,-10.25915
8.44175,0.1052,0.18091,-9.59042
8.45179,-0.53226,0.62968,-10.30584
8.46183,-1.35183,0.63027,-12.27477
8.47186,-2.2088,0.45056,-13.87485
8.4819,-3.62213,1.08038,-16.20845
8.49194,-4.7272,1.55429,-18.66983
8.50197,-4.65523,1.08368,-18.3535
8.51201,-3.83626,0.5357,-15.73454
8.52204,-2.81349,0.19049,-13.26253
8.53208,-1.93661,0.25394,-12.28225
8.54212,-1.37367,0.60558,-12.86285
8.55215,-1.08338,1.04821,-13.92842
8.56219,-1.26219,1.70063,-14.61151
8.57223,-2.32417,2.90162,-16.61995
8.58226,-3.3016,3.11156,-18.72311
8.5923,-3.2398,2.1874,-17.1338
8.60233,-3.07206,1.08083,-13.75544
8.61237,-3.30968,0.59915,-11.40568
8.62241,-3.85975,0.55007,-10.99193
8.63244,-4.21365,0.72814,-11.1489
8.64248,-4.18791,0.85129,-10.75969
8.65252,-3.87127,1.05958,-9.73797
8.66255,-3.18683,1.43009,-8.92962
8.67259,-2.3532,1.67175,-8.54446
8.68263,-1.76857,1.7744,-8.82458
8.69266,-1.50491,1.67938,-9.13268
8.7027,-1.18004,1.60202,-8.74617
8.71273,-0.69148,1.70617,-8.27107
8.72277,-0.2252,1.70826,-8.0918
8.73281,0.13437,1.60277,-8.18548
8.74284,0.30032,1.50101,-8.37581
8.75288,0.22431,1.41378,-8.20822
8.76292,0.0202,1.33776,-7.74105
8.77295,-0.03172,1.50012,-7.32715
8.78299,0.19303,1.76453,-6.90353
8.79303,0.80729,1.9013,-6.6499
8.80306,1.81481,1.84084,-6.39536
8.8131,3.23681,1.60905,-6.42694
8.82313,4.46848,1.36619,-7.03327
8.83317,4.92592,1.14084,-7.60204
8.84321,4.36179,0.83049,-7.29618
8.85324,3.3242,0.55665,-6.45432
8.86328,2.69108,0.49859,-5.43439
8.87332,2.58649,0.59631,-4.13464
8.88335,2.28018,0.12016,-2.73702
8.89339,2.04779,-0.73831,-2.1078
8.90343,1.97582,-1.37906,-2.8473
8.91346,2.27584,-1.39432,-4.47521
8.9235,2.65113,-0.98237,-6.20592
8.93353,2.9507,-0.44113,-7.77697
8.94357,3.01026,-0.1661,-9.18865
8.95361,2.74854,-0.41495,-9.61871
8.96364,1.99198,-0.9713,-8.77415
8.97368,1.05854,-1.65005,-7.64409
8.98372,0.3711,-2.42069,-6.7286
8.99375,0.00853,-3.00622,-6.29256
9.00379,-0.17957,-3.37134,-6.24812
9.01382,-0.43215,-3.45678,-6.52944
9.02386,-0.81283,-3.20718,-6.91745
9.0339,-1.06093,-2.96073,-7.52064
9.04393,-1.13889,-2.73882,-7.99065
9.05397,-1.20129,-2.67148,-8.28454
9.06401,-1.28943,-2.82306,-8.70307
9.07404,-1.43128,-2.99425,-8.79555
9.08408,-1.74582,-3.2208,-8.5473
9.09411,-2.12081,-3.35682,-8.34125
9.10415,-2.36861,-3.35009,-8.27765
9.11419,-2.40692,-3.40276,-8.37716
9.12422,-2.45555,-3.49628,-8.42535
9.13426,-2.54204,-3.49928,-8.35965
9.1443,-2.64185,-3.446,-8.33317
9.15433,-2.54159,-3.29128,-8.36384
9.16437,-2.32851,-3.14448,-8.54535
9.17441,-2.21404,-3.08463,-8.90763
9.18444,-2.15029,-3.03839,-9.30117
9.19448,-2.22556,-2.96223,-9.44348
9.20452,-2.4985,-2.88801,-9.18146
9.21455,-2.81872,-2.95669,-8.66162
9.22459,-3.00547,-3.0767,-8.32808
9.23462,-2.94113,-2.9938,-8.32973
9.24466,-2.69303,-2.7885,-8.70891
9.2547,-2.49072,-2.43161,-9.07283
9.26473,-2.24741,-2.05782,-9.38916
9.27477,-2.03447,-1.74178,-9.43166
9.28481,-1.94379,-1.60082,-9.36687
9.29484,-1.98165,-1.61728,-9.22965
9.30488,-2.19054,-1.76288,-9.04185
9.31492,-2.4997,-1.94424,-8.77699
9.32495,-2.67612,-2.09478,-8.51393
9.33499,-2.6438,-2.106,-8.1548
9.34502,-2.50568,-2.03971,-7.76619
9.35506,-2.32731,-2.00694,-7.52049
9.3651,-2.19937,-1.98644,-7.36845
9.37513,-2.16316,-1.91865,-7.26685
9.38517,-2.12665,-1.83216,-7.08504
9.39521,-2.10196,-1.62806,-6.77709
9.40524,-1.98794,-1.33372,-6.44654
9.41528,-1.83276,-1.10163,-6.12197
9.42531,-1.6116,-0.96771,-5.69685
9.43535,-1.32818,-0.89932,-5.19647
9.44539,-1.09385,-0.79009,-4.72645
9.45542,-0.84964,-0.67741,-4.37765
9.46546,-0.77018,-0.80011,-4.01029
9.4755,-0.90501,-1.03923,-3.66313
9.48553,-1.10492,-1.07619,-3.4475
9.49557,-1.24244,-1.21775,-3.67226
9.50561,-1.34868,-1.5881,-4.34787
9.51564,-1.45732,-1.88513,-4.80636
9.52568,-1.6909,-2.05348,-4.92218
9.53572,-2.13503,-1.89321,-4.93894
9.54575,-2.49655,-1.50535,-4.33156
9.55579,-2.21524,-1.30963,-4.13359
9.56582,-1.73131,-1.63285,-4.14391
9.57586,-1.51403,-2.23184,-3.98829
9.5859,-1.62776,-2.85823,-3.93442
9.59593,-1.81436,-3.31597,-4.34697
9.60597,-2.09358,-3.24609,-4.93849
9.61601,-2.30487,-2.99679,-5.69057
9.62604,-2.17184,-2.86751,-6.66875
9.63608,-1.77665,-2.82217,-7.93438
9.64611,-1.29676,-2.54908,-8.83221
9.65615,-0.83782,-2.07847,-9.15513
9.66619,-0.39983,-1.76213,-9.24476
9.67622,-0.24241,-1.53558,-9.1686
9.68626,0.20874,-1.77231,-9.32452
9.6963,0.77048,-2.00679,-9.84062
9.70633,0.744,-1.79775,-10.66452
9.71637,0.36736,-1.41213,-11.51895
9.72641,-0.15951,-1.01574,-12.19696
9.73644,-0.9068,-0.92686,-13.16841
9.74648,-1.58855,-1.50491,-13.86198
9.75652,-2.28706,-2.4563,-14.35578
9.76655,-2.53636,-3.05904,-14.73302
9.77659,-2.3131,-2.84431,-14.96032
9.78662,-2.12246,-2.21538,-15.28069
9.79666,-2.26626,-1.9417,-15.96933
9.8067,-2.69063,-2.01682,-16.58344
9.81673,-2.86825,-2.36682,-16.98252
9.82677,-2.43206,-2.45974,-17.35602
9.83681,-1.64123,-2.05617,-17.57643
9.84684,-0.76151,-1.69689,-17.3415
9.85688,-0.2897,-1.46226,-16.81627
9.86692,-0.76195,-1.60741,-16.05911
9.87695,-1.75241,-2.27509,-15.0308
9.88699,-2.67253,-2.96956,-14.31643
9.89702,-3.0339,-3.4074,-14.15856
9.90706,-2.96806,-3.48192,-14.07985
9.9171,-2.63198,-3.0761,-14.20794
9.92713,-1.90219,-2.45451,-14.21587
9.93717,-1.16164,-1.87631,-13.58754
9.94721,-0.72963,-1.66861,-12.62926
9.95724,-0.59451,-1.69375,-11.50773
9.96728,-0.54902,-1.6122,-10.48451
9.97731,-0.52672,-1.4461,-10.09291
9.98735,-0.50099,-1.30903,-9.98068
9.99739,-0.64733,-1.35811,-10.13391
10.00742,-0.91608,-1.59708,-10.22159
10.01746,-1.21625,-1.83501,-9.98217
10.0275,-1.37487,-1.97447,-9.56843
10.03753,-1.36634,-1.95337,-9.2699
10.04757,-1.19456,-1.89187,-9.39335
10.05761,-0.93688,-1.6526,-9.58264
10.06764,-0.67262,-1.42874,-9.6615
10.07768,-0.43993,-1.26668,-9.67257
10.08772,-0.32531,-1.12692,-9.49645
10.09775,-0.31574,-1.0955,-9.22396
10.10779,-0.49889,-1.2815,-8.94444
10.11782,-0.63327,-1.47243,-8.96599
10.12786,-0.74879,-1.46136,-9.19284
10.1379,-0.90576,-1.32878,-9.47401
10.14793,-1.03115,-1.37786,-9.80411
10.15797,-1.05779,-1.58571,-9.82221
10.16801,-0.89274,-1.73445,-9.63053
10.17804,-0.63207,-1.49323,-9.57591
10.18808,-0.40028,-1.17361,-9.66285
10.19812,-0.20306,-0.99659,-9.95763
10.20815,-0.19288,-1.05315,-10.12792
10.21819,-0.34851,-1.33013,-10.17446
10.22822,-0.48094,-1.63314,-9.93654
10.23826,-0.44023,-1.7979,-9.49705
10.2483,-0.29628,-1.74911,-9.09632
10.25833,0.0416,-1.61698,-8.95132
10.26837,0.4115,-1.38534,-9.18745
10.27841,0.57985,-1.23975,-9.51695
10.28844,0.65392,-1.17361,-9.81593
10.29848,0.8242,-1.23646,-10.12762
10.30852,1.02651,-1.258,-10.00103
10.31855,1.30499,-1.30604,-9.43211
10.32859,1.77096,-1.40315,-8.90194
10.33862,2.12605,-1.39687,-8.61718
10.34866,2.32193,-1.42365,-8.70098
10.35932,2.46797,-1.57434,-9.1671
10.36936,2.60519,-1.70347,-9.55526
10.3794,2.71832,-1.71754,-9.76685
10.38943,3.014,-1.69524,-9.87414
10.39947,3.45453,-1.54576,-10.05535
10.40951,3.85511,-1.26923,-10.4257
10.41954,3.97108,-1.05659,-10.81027
10.42958,3.83282,-0.91907,-11.10999
10.43962,3.7146,-0.93883,-11.12286
10.44965,3.77805,-1.12288,-11.12062
10.45969,3.90539,-1.27461,-10.86264
10.46972,3.62123,-1.39986,-10.3024
10.47976,2.79942,-1.49249,-9.7851
10.4898,1.87092,-1.5495,-9.05622
10.49983,1.25441,-1.60202,-8.09524
10.50987,1.12902,-1.47797,-7.91852
10.51991,1.46675,-1.1549,-8.4846
10.52994,2.05482,-0.92865,-9.23399
10.53998,2.1889,-0.87194,-9.96317
10.55001,1.60621,-0.67876,-10.47388
10.56005,0.83363,-0.48647,-10.80324
10.57009,0.03038,-0.25064,-10.78079
10.58012,-1.03804,0.0395,-10.19975
10.59016,-1.9185,-0.20605,-9.50318
10.6002,-2.05647,-0.98072,-8.70936
10.61023,-1.88109,-1.72008,-8.39572
10.62027,-1.67459,-2.22571,-8.38794
10.63031,-1.89127,-2.2302,-8.36369
10.64034,-2.86825,-1.92808,-8.54236
10.65038,-4.09154,-1.57613,-8.96524
10.66042,-4.89405,-1.51703,-9.27304
10.67045,-5.28146,-1.56895,-9.46368
10.68049,-5.3072,-1.85401,-9.44393
10.69053,-5.09456,-2.26013,-9.25673
10.70056,-4.86711,-2.49416,-9.37839
10.7106,-4.74606,-2.82905,-9.58968
10.72063,-4.6265,-2.78461,-9.38138
10.73067,-4.3751,-2.3535,-9.12939
10.74071,-4.48329,-1.93092,-9.03931
10.75074,-4.40354,-1.80298,-8.97167
10.76078,-3.89716,-2.02355,-9.10246
10.77081,-3.29577,-1.9631,-9.40951
10.78085,-2.80391,-1.43772,-9.45934
10.79089,-2.71098,-0.98267,-9.52413
10.80093,-2.94068,-1.25127,-9.64325
10.81096,-3.39243,-1.92524,-9.74964
10.821,-3.7972,-2.46184,-9.87294
10.83103,-3.8174,-2.79478,-9.87399
10.84107,-3.52711,-2.71473,-9.84167
10.85111,-2.96193,-2.34572,-9.77822
10.86114,-2.34288,-2.10765,-9.44947
10.87118,-2.00754,-2.25654,-9.27633
10.88122,-1.7967,-2.46947,-9.47371
10.89125,-1.589,-2.21164,-9.73363
10.90129,-1.14697,-1.88274,-10.1149
10.91132,-0.59346,-1.70512,-10.13301
10.92136,-0.42392,-1.9387,-9.61242
10.93202,-0.42392,-1.9387,-9.61242
10.94206,-0.73622,-2.2106,-9.81368
10.9521,-0.7434,-2.32716,-10.10503
10.96213,-0.34866,-2.25025,-10.1173
10.97217,0.15173,-1.92943,-10.02123
10.98221,0.41105,-1.50386,-10.17102
10.99224,0.39729,-1.32803,-10.51533
11.00228,0.33534,-1.36888,-10.61709
11.01231,0.27054,-1.49892,-10.39084
11.02235,0.28461,-1.76857,-10.0531
11.03239,0.13901,-1.8796,-9.93369
11.04242,-0.10056,-1.79954,-10.19062
11.05246,-0.17193,-1.66202,-10.55424
11.0625,-0.06,-1.46256,-10.66407
11.07253,0.16969,-1.34449,-10.34699
11.08257,0.27863,-1.28569,-9.88311
11.09261,0.24406,-1.36694,-9.81219
11.10264,0.14455,-1.46211,-9.99355
11.11268,-0.02215,-1.61414,-10.03096
11.12272,-0.13363,-1.72742,-9.95494
11.13275,-0.22311,-1.67355,-10.02362
11.14279,-0.208,-1.49099,-10.10188
11.15282,-0.09113,-1.35228,-10.05744
11.16286,0.05986,-1.37322,-9.99744
11.1729,0.11657,-1.3617,-9.98951
11.18293,0.00284,-1.34225,-10.01809
11.19297,-0.10026,-1.43353,-10.03664
11.20301,-0.12644,-1.48665,-10.02003
11.21304,0.0407,-1.42485,-9.95659
11.22308,0.15742,-1.27835,-9.88117
11.23312,0.1049,-1.25336,-9.88102
11.24315,-0.11193,-1.27057,-9.93489
11.25319,-0.36916,-1.36709,-10.00447
11.26323,-0.49859,-1.45238,-10.00297
11.27326,-0.353,-1.54546,-9.87982
11.2833,-0.1245,-1.5281,-9.71343
11.29333,0.08948,-1.38983,-9.71402
11.30337,0.09981,-1.23541,-9.74934
11.31341,-0.22895,-1.20159,-9.83718
11.32344,-0.39953,-1.40629,-9.87743
11.33348,-0.23553,-1.53019,-9.67003
11.34352,-0.07826,-1.45283,-9.46248
11.35355,-0.04863,-1.26115,-9.50513
11.36359,-0.25753,-1.22179,-9.67437
11.37362,-0.30032,-1.42096,-9.59611
11.38366,-0.07497,-1.61384,-9.45186
11.3937,0.10505,-1.49997,-9.30866
11.40373,0.19049,-1.35452,-9.30506
11.41377,0.29314,-1.32384,-9.65402
11.42381,0.45984,-1.26519,-9.88326
11.43384,0.38472,-1.0955,-9.58384
11.44388,0.12016,-1.15116,-9.38781
11.45392,-0.12914,-1.38041,-9.64953
11.46395,-0.12704,-1.54411,-9.931
11.47399,-0.02664,-1.46974,-9.82939
11.48402,0.05342,-1.3852,-9.59072
11.49406,0.16819,-1.51164,-9.45276
11.5041,0.19184,-1.68043,-9.32886
11.51413,0.14186,-1.69928,-9.28666
11.52417,0.10998,-1.63689,-9.4149
11.53421,0.05761,-1.4464,-9.76011
11.54424,0.04863,-1.3026,-10.01794
11.55428,0.0404,-1.30469,-9.92217
11.56432,0.00464,-1.40195,-9.75592
11.57435,0.01586,-1.51613,-9.72704
11.58439,-0.01586,-1.56132,-9.47939
11.59442,-0.04354,-1.66981,-9.32018
11.60446,0.02215,-1.68971,-9.38737
11.6145,0.15966,-1.56237,-9.59521
11.62453,0.28401,-1.4045,-9.72585
11.63457,0.27159,-1.30274,-9.78211
11.64461,0.27414,-1.3623,-9.7251
11.65464,0.2475,-1.42994,-9.6603
11.66468,0.28207,-1.42889,-9.59207
11.67472,0.28386,-1.42455,-9.49121
11.68475,0.28042,-1.43592,-9.49959
11.69479,0.3503,-1.40151,-9.74799
11.70482,0.4543,-1.26504,-9.89224
11.71486,0.54483,-1.19276,-9.81817
11.7249,0.60768,-1.25711,-9.6633
11.73494,0.53346,-1.36395,-9.55376
11.74497,0.46672,-1.43113,-9.58638
11.75501,0.41001,-1.37846,-9.66494
11.76504,0.27578,-1.32534,-9.79333
11.77508,0.24855,-1.38834,-9.84466
11.78512,0.3527,-1.48934,-9.67123
11.79515,0.39385,-1.45029,-9.46862
11.80519,0.43634,-1.35617,-9.52413
11.81523,0.40746,-1.3418,-9.58324
11.82526,0.31544,-1.4054,-9.61003
11.8353,0.25438,-1.45029,-9.64325
11.84533,0.09861,-1.40779,-9.67632
11.85537,-0.03816,-1.46211,-9.75996
11.86541,-0.03127,-1.51314,-9.76744
11.87544,0.03831,-1.49458,-9.69023
11.88548,0.14335,-1.46031,-9.64878
11.89552,0.18076,-1.40151,-9.73827
11.90555,0.249,-1.37263,-9.80964
11.91559,0.31559,-1.38684,-9.71522
11.92563,0.34641,-1.44924,-9.6196
11.93566,0.26501,-1.49787,-9.47416
11.9457,0.1031,-1.56895,-9.3311
11.95574,0.04878,-1.63943,-9.40218
11.96577,0.07512,-1.60097,-9.53251
11.97581,0.26321,-1.49293,-9.6202
11.98584,0.46747,-1.39417,-9.53012
11.99588,0.47405,-1.29377,-9.54493
12.00592,0.34776,-1.33881,-9.62125
12.01595,0.1646,-1.47438,-9.60075
12.02599,0.11178,-1.56805,-9.62723
12.03603,0.09816,-1.53618,-9.64205
12.04606,0.14979,-1.49293,-9.69981
12.0561,0.3292,-1.50865,-9.72076
12.06614,0.50293,-1.48545,-9.61167
12.07617,0.43185,-1.44311,-9.54553
12.08621,0.25783,-1.48605,-9.62783
12.09624,0.11492,-1.54172,-9.80665
12.10628,0.07886,-1.58631,-9.87189
12.11632,0.20066,-1.61983,-9.69697
12.12635,0.28401,-1.59499,-9.61407
12.13639,0.28656,-1.57598,-9.73438
12.14643,0.23059,-1.5079,-9.83822
12.15646,0.21922,-1.46735,-9.89389
12.1665,0.23314,-1.48815,-9.75532
12.17654,0.22087,-1.52451,-9.62918
12.18657,0.22939,-1.52137,-9.71103
12.19661,0.27638,-1.49847,-9.7869
12.20665,0.38891,-1.47977,-9.71208
12.21668,0.47285,-1.48007,-9.5165
12.22672,0.50203,-1.51972,-9.40113
12.23675,0.49575,-1.51433,-9.3525
12.24679,0.58164,-1.37293,-9.50498
12.25683,0.63701,-1.23661,-9.78016
12.26686,0.51849,-1.14368,-10.07734
12.2769,0.41584,-1.22179,-10.03006
12.28694,0.27982,-1.39941,-9.62514
12.29697,0.1661,-1.48949,-9.57471
12.30701,0.2288,-1.44206,-9.69607
12.31705,0.37409,-1.32265,-9.72629
12.32708,0.53525,-1.17899,-9.72749
12.33712,0.6213,-1.10373,-9.69098
12.34715,0.51685,-1.13889,-9.77508
12.35719,0.32052,-1.26758,-9.82476
12.36723,0.19842,-1.45373,-9.72779
12.37726,0.26441,-1.52645,-9.66749
12.3873,0.43006,-1.41422,-9.76894
12.39734,0.4733,-1.27506,-9.98621
12.40737,0.34955,-1.0946,-10.35253
12.41741,0.16071,-1.0937,-10.77705
12.42745,-0.06449,-1.22613,-10.89392
12.43748,-0.14769,-1.35407,-10.84319
12.44752,0.05716,-1.39507,-10.79141
12.45756,0.29449,-1.24858,-10.81251
12.46759,0.4344,-1.16179,-11.13783
12.47763,0.37604,-1.15116,-11.70136
12.48766,0.0205,-1.17346,-12.13666
12.4977,-0.43709,-1.26773,-12.52946
12.50774,-0.68489,-1.50146,-12.51539
12.51777,-0.62219,-1.71021,-12.07321
12.52781,-0.29613,-1.68043,-11.47646
12.53785,0.1043,-1.58661,-10.9014
12.54788,0.39624,-1.65769,-10.57743
12.55792,0.89887,-1.64975,-10.35747
12.56796,1.29377,-1.18408,-9.92531
12.57799,-0.38816,-0.05267,-11.27579
12.58803,-2.13548,-0.52358,-15.11624
12.59806,-3.36729,-0.8049,-16.67801
12.6081,-4.69084,-0.804,-16.71108
12.61814,-5.08573,-0.91189,-16.13333
12.62817,-3.4457,-1.44879,-15.26483
12.63821,-0.79338,-0.886,-13.55866
12.64825,2.34018,0.86431,-12.02593
12.65828,5.24779,2.46259,-11.7072
12.66832,6.41018,3.91647,-12.02203
12.67836,3.45827,5.34715,-14.46726
12.68839,-0.65945,4.26587,-20.1077
12.69843,-1.6107,2.37924,-21.03486
12.70847,-0.86865,1.8371,-16.83423
12.7185,0.69148,2.30996,-12.75361
12.72854,1.92673,2.63542,-11.39191
12.73857,2.16152,2.90312,-11.65767
12.74861,1.51747,2.94457,-12.86479
12.75865,0.66125,2.79448,-14.30535
12.76868,-0.47959,2.65771,-15.15634
12.77872,-1.16104,2.2935,-14.83747
12.78876,-1.60471,2.23125,-12.32505
12.79879,-1.64901,2.024,-10.04038
12.80883,-0.88571,1.20937,-8.29486
12.81887,-0.77901,0.65496,-6.24034
12.8289,-0.56937,0.07153,-5.54347
12.83894,0.35928,-0.68519,-6.94304
12.84897,0.50159,-0.58598,-7.6818
12.85901,0.38846,-0.2493,-7.54114
12.86905,0.65152,0.20785,-6.98344
12.87908,1.21236,0.7449,-6.26982
12.88912,1.85012,0.98207,-5.95692
12.89916,2.63706,0.848,-6.32653
12.90919,3.45813,0.79502,-6.98404
12.91923,3.9413,0.35748,-7.32267
12.92927,3.86649,-0.72499,-6.84457
12.9393,2.92093,-1.48665,-5.24555
12.94934,2.03507,-1.69495,-4.03228
12.95938,1.58167,-1.80433,-4.17055
12.96941,1.47962,-1.81555,-4.8092
12.97945,1.65813,-1.54052,-5.34984
12.98948,2.2073,-1.04133,-5.65451
12.99952,2.73104,-0.65826,-5.62772
13.00956,3.00936,-0.69731,-5.48078
13.01959,3.12189,-1.15849,-5.35328
13.02963,3.10797,-2.01083,-4.97889
13.03967,2.90237,-3.08418,-4.07538
13.0497,2.59487,-3.69844,-3.43044
13.05974,2.30981,-3.65729,-3.7152
13.06978,2.18306,-3.25911,-4.73827
13.07981,2.19473,-2.79882,-5.82584
13.08985,2.26342,-2.38268,-6.70272
13.09989,2.40542,-2.13907,-7.23154
13.10992,2.49955,-2.13937,-7.41724
13.11996,2.28901,-2.28886,-7.40497
13.12999,1.84802,-2.39031,-7.61401
13.14003,1.36245,-2.35949,-7.96237
13.15007,0.95499,-2.39196,-8.05634
13.1601,0.63102,-2.61926,-8.00786
13.17014,0.35763,-3.03675,-7.92855
13.18018,0.20605,-2.88546,-8.16123
13.19021,0.27967,-2.45585,-8.72597
13.20025,0.54094,-2.07458,-8.88518
13.21028,0.92177,-1.86523,-8.77445
13.22032,1.00302,-2.05393,-8.78133
13.23036,0.67786,-2.37146,-8.72642
13.24039,0.38562,-2.4792,-8.65609
13.25043,0.02379,-2.4786,-8.55747
13.26047,-0.54528,-2.73523,-8.74901
13.2705,-1.10208,-3.19461,-8.8795
13.28054,-1.5489,-3.51589,-8.71445
13.29058,-1.64257,-3.52202,-8.61568
13.30061,-1.41677,-3.27766,-8.60641
13.31065,-1.15116,-2.97569,-8.74722
13.32069,-1.04417,-2.76081,-9.04889
13.33072,-0.98432,-2.65667,-9.36866
13.34076,-1.10941,-2.7463,-9.29309
13.35079,-1.42231,-2.91165,-9.03796
13.36083,-1.84907,-3.20643,-8.82727
13.37087,-2.34033,-3.71101,-8.51887
13.3809,-2.60848,-3.82489,-8.56645
13.39094,-2.56988,-3.43837,-8.97646
13.40098,-2.12994,-2.83728,-9.49286
13.41101,-1.4458,-2.3342,-9.88461
13.42105,-0.87403,-2.07652,-9.91559
13.43109,-0.54333,-2.10211,-9.72195
13.44112,-0.71557,-2.48324,-9.1656
13.45116,-1.04881,-2.85134,-8.84283
13.46119,-1.36784,-2.91629,-8.84373
13.47123,-1.58197,-2.79777,-9.09991
13.48127,-1.74448,-2.72804,-9.41699
13.4913,-1.82857,-2.83069,-9.60898
13.50134,-1.95546,-3.06248,-9.49555
13.51138,-2.02684,-3.13087,-9.32736
13.52141,-1.96654,-2.95849,-9.25164
13.53145,-1.81271,-2.67552,-9.2919
13.54149,-1.52002,-2.42607,-9.33335
13.55152,-1.29751,-2.36502,-9.15842
13.56156,-1.3436,-2.61462,-8.88713
13.5716,-1.5079,-2.90043,-8.73734
13.58163,-1.6728,-3.00652,-8.59668
13.59167,-1.84339,-2.92377,-8.49897
13.6017,-1.92643,-2.79164,-8.61374
13.61174,-1.83007,-2.63048,-8.66222
13.62178,-1.59903,-2.42652,-8.4008
13.63181,-1.34719,-2.19174,-7.93244
13.64185,-1.27342,-2.04121,-7.19443
13.65189,-1.54202,-2.24022,-6.77275
13.66192,-2.17917,-2.84715,-7.25907
13.67196,-2.93963,-3.32016,-7.58214
13.682,-3.31492,-3.40081,-7.50986
13.69203,-3.11905,-3.326,-7.23707
13.70207,-2.87693,-3.06937,-6.26712
13.71211,-2.50029,-2.7029,-5.12509
13.72214,-2.14281,-2.61985,-4.77598
13.73218,-1.93272,-2.81034,-4.8101
13.74222,-1.89501,-3.10737,-4.6262
13.75225,-1.81017,-3.13416,-4.4393
13.76229,-1.45986,-2.76515,-4.44364
13.77232,-1.2179,-2.32567,-4.56544
13.78236,-1.29257,-2.16406,-4.52669
13.7924,-1.62611,-2.2492,-4.85664
13.80243,-2.01667,-2.61926,-5.19991
13.81247,-2.087,-3.01161,-5.25018
13.82251,-1.80074,-2.93933,-5.14858
13.83254,-1.26339,-2.41291,-5.02902
13.84258,-0.79188,-1.86359,-4.97755
13.85262,-0.68579,-1.61534,-4.76311
13.86265,-0.75343,-1.84398,-4.9328
13.87269,-0.88211,-2.17184,-5.55739
13.88272,-0.93464,-2.26297,-6.3195
13.89276,-0.87239,-2.11213,-6.81689
13.9028,-0.84725,-2.12455,-6.59004
13.91283,-0.93913,-2.27868,-5.80145
13.92287,-0.85323,-2.31699,-5.64044
13.93291,-1.1154,-2.28078,-6.2363
13.94294,-1.68253,-2.3312,-7.06679
13.95298,-2.16855,-2.68076,-7.60413
13.96302,-1.94903,-2.66026,-8.27825
13.97305,-1.14129,-1.96055,-8.62362
13.98309,-0.21234,-1.30858,-8.77759
13.99312,0.24511,-0.95514,-8.46545
14.00316,-0.2059,-1.14368,-7.73776
14.0132,-1.31232,-2.22825,-7.02294
14.02324,-2.13817,-3.72957,-7.35334
14.03327,-2.09553,-4.05638,-7.91059
14.04331,-1.12527,-2.72864,-9.02285
14.05334,0.00718,-0.98372,-11.10805
14.06338,0.08469,0.10071,-13.0903
14.07342,-1.16777,-0.27758,-14.08808
14.08345,-2.6854,-1.82333,-14.29742
14.09349,-3.53773,-3.18788,-13.89789
14.10353,-3.39243,-3.20554,-14.20151
14.11356,-2.66714,-1.91761,-15.41058
14.1236,-2.30322,-0.63252,-16.55875
14.13363,-2.53576,-0.34881,-17.46136
14.14367,-2.70126,-0.52403,-17.93167
14.15371,-2.50598,-0.37559,-17.68223
14.16374,-2.23514,-0.11672,-17.22942
14.17378,-2.25968,-0.1872,-16.62324
14.18382,-2.61252,-0.54737,-16.09786
14.19385,-3.02702,-1.0337,-15.85096
14.20389,-3.14763,-1.34045,-15.17176
14.21393,-2.98362,-1.29586,-14.41654
14.22396,-2.72849,-1.30364,-13.75858
14.234,-2.5594,-1.45837,-13.04421
14.24404,-2.49416,-1.52181,-12.66937
14.25407,-2.35649,-1.51882,-12.41438
14.26411,-2.07278,-1.40854,-12.22075
14.27415,-1.77156,-1.11794,-12.17945
14.28418,-1.53633,-0.92536,-12.04957
14.29422,-1.45882,-1.02801,-11.69059
14.30425,-1.58825,-1.14996,-11.3964
14.31429,-1.86613,-1.22838,-11.30153
14.32433,-2.19997,-1.37397,-11.21444
14.33436,-2.35574,-1.55743,-10.9008
14.3444,-2.20087,-1.56162,-10.44096
14.35506,-1.674,-1.26384,-9.66659
14.3651,-1.674,-1.26384,-9.66659
14.37514,-1.3828,-0.92177,-9.6639
14.38517,-0.98252,-0.48931,-9.86546
14.39521,-0.6409,-0.23194,-9.88865
14.40525,-0.54812,-0.31753,-9.77642
14.41528,-0.74669,-0.4974,-9.60494
14.42532,-1.01155,-0.73008,-9.6003
14.43535,-1.18124,-0.85114,-9.52234
14.44539,-1.14996,-0.81971,-9.578
14.45543,-0.89887,-0.83363,-9.66075
14.46546,-0.52568,-0.65062,-9.33784
14.4755,-0.26441,-0.53645,-9.21034
14.48554,-0.22296,-0.54244,-9.1668
14.49557,-0.20964,-0.62938,-9.11682
14.50561,-0.10175,-0.74804,-9.1249
14.51565,0.06674,-0.71706,-8.98215
14.52568,0.28192,-0.72335,-8.9998
14.53572,0.51775,-0.72799,-8.92199
14.54576,0.67367,-0.71467,-8.88533
14.55579,0.67053,-0.77976,-8.96464
14.56583,0.62878,-0.87299,-9.05307
14.57586,0.51011,-0.94556,-9.32512
14.5859,0.1658,-0.98267,-9.77822
14.59594,-0.25094,-1.00137,-10.24793
14.60597,-0.48542,-0.91473,-10.50576
14.61601,-0.48333,-0.90531,-10.6521
14.62605,-0.08634,-0.87209,-10.82957
14.63608,0.54603,-0.59122,-10.78274
14.64612,1.15805,-0.35599,-10.58731
14.65616,1.42545,-0.30706,-10.40475
14.66619,1.46331,-0.50099,-10.34205
14.67623,1.39672,-0.70674,-10.39832
14.68627,1.29721,-0.76749,-10.62636
14.6963,1.2387,-0.8052,-10.67589
14.70634,1.09774,-0.83453,-10.38066
14.71638,0.73876,-1.02412,-10.0944
14.72641,0.34372,-1.31801,-10.0763
14.73645,0.27129,-1.32714,-9.92337
14.74648,0.62144,-1.06736,-9.77792
14.75652,1.06213,-0.67262,-9.69786
14.76656,1.35048,-0.45325,-9.69263
14.77659,1.31771,-0.40118,-9.75847
14.78663,0.79293,-0.49695,-10.03694
14.79667,0.09457,-0.93479,-10.29462
14.8067,-0.35928,-1.49159,-10.14423
14.81674,-0.40223,-1.87167,-9.73213
14.82677,-0.1851,-1.97447,-9.21603
14.83681,0.0633,-1.72218,-8.76667
14.84685,0.2674,-1.33866,-8.77265
14.85688,0.2668,-1.07799,-9.06789
14.86692,-0.00434,-0.97579,-9.44423
14.87696,-0.24271,-0.8857,-9.9497
14.88699,-0.40746,-0.60573,-10.22519
14.89703,-0.64808,-0.32441,-10.35373
14.90707,-0.97713,-0.27982,-10.73979
14.9171,-1.44296,-0.43784,-11.03039
14.92714,-2.10031,-0.65541,-11.07797
14.93718,-2.73418,-0.87493,-11.10775
14.94721,-2.88142,-0.97953,-11.2912
14.95725,-2.38043,-0.7829,-10.8797
14.96728,-1.68731,-0.40208,-10.05744
14.97732,-1.14144,-0.26157,-9.61317
14.98736,-1.03534,-0.43141,-9.58713
14.99739,-1.28254,-0.78231,-9.34008
15.00743,-1.75375,-1.1163,-8.91915
15.01747,-2.14311,-1.5085,-8.98484
15.0275,-2.5823,-1.43248,-9.2497
15.03754,-3.05784,-1.23301,-9.77134
15.0482,-2.8283,-1.43143,-10.11221
15.05824,-2.21778,-1.35871,-9.56828
15.06828,-1.57179,-1.01544,-8.71085
15.07831,-1.03819,-0.65766,-8.24653
15.08835,-1.17555,-0.38188,-8.37626
15.09839,-1.85431,-0.52328,-9.083
15.10842,-2.51152,-1.00497,-9.64459
15.11846,-2.8696,-1.28494,-9.68021
15.12849,-2.88696,-1.2595,-9.64205
15.13853,-2.7858,-1.06677,-9.57995
15.14857,-2.61103,-0.9487,-9.64519
15.1586,-2.47007,-0.89259,-9.81503
15.16864,-2.13653,-1.04297,-9.77672
15.17868,-1.63225,-1.09639,-9.41475
15.18871,-1.12632,-1.02427,-9.08031
15.19875,-0.78395,-0.94167,-8.91526
15.20879,-0.71048,-0.97384,-9.02599
15.21882,-0.86072,-0.98087,-9.40053
15.22886,-1.02247,-1.16418,-9.65596
15.2389,-1.13321,-1.34285,-9.35534
15.24893,-1.22059,-1.40405,-9.24371
15.25897,-1.31935,-1.36589,-9.73856
15.26901,-1.31502,-1.33596,-10.21965
15.27904,-0.89528,-1.2803,-10.2008
15.28908,-0.29105,-1.11166,-9.73512
15.29911,0.24107,-1.01335,-9.29803
15.30915,0.56862,-1.00871,-9.0236
15.31919,0.52777,-0.97878,-9.06385
15.32922,-0.04504,-0.87149,-9.58938
15.33926,-0.6611,-0.97639,-10.407
15.3493,-0.84575,-1.14772,-10.73171
15.35933,-0.66574,-1.09191,-10.39742
15.36937,-0.3292,-0.92341,-9.93354
15.37941,0.00599,-0.78141,-9.52114
15.38944,0.2909,-0.83603,-9.36088
15.39948,0.45056,-0.95439,-9.25539
15.40951,0.49126,-0.93389,-9.20735
15.41955,0.42826,-0.91518,-9.22695
15.42959,0.19947,-0.7844,-9.51605
15.43962,-0.16445,-0.6822,-10.13421
15.44966,-0.33698,-0.72335,-10.48481
15.4597,-0.14515,-0.71931,-10.22429
15.46973,0.20351,-0.5999,-9.72734
15.47977,0.50413,-0.52942,-9.40772
15.48981,0.65212,-0.54663,-9.35953
15.49984,0.61516,-0.49141,-9.59566
15.50988,0.52298,-0.41465,-9.89269
15.51991,0.45969,-0.44083,-10.04203
15.52995,0.46492,-0.47046,-10.1158
15.53999,0.43604,-0.43215,-10.05056
15.55002,0.31978,-0.45565,-9.89374
15.56006,0.21802,-0.63566,-9.68694
15.5701,0.32307,-0.76629,-9.53132
15.58013,0.53525,-0.65047,-9.51411
15.59017,0.73981,-0.46029,-9.5795
15.60021,0.8043,-0.29179,-9.72525
15.61024,0.60618,-0.2261,-9.98487
15.62028,0.3316,-0.42751,-10.07794
15.63032,0.21952,-0.67861,-9.81114
15.64035,0.2906,-0.73861,-9.5816
15.65039,0.49784,-0.55486,-9.6636
15.66042,0.63985,-0.35659,-9.8065
15.67046,0.63132,-0.27952,-9.85962
15.6805,0.42796,-0.32441,-9.9913
15.69053,0.27952,-0.46014,-9.94282
15.70057,0.25483,-0.54513,-9.74694
15.71061,0.35314,-0.43934,-9.77328
15.72064,0.46433,-0.2879,-9.83493
15.73068,0.48647,-0.23792,-9.84556
15.74072,0.42048,-0.35509,-9.8671
15.75075,0.34327,-0.46807,-9.77882
15.76079,0.25902,-0.46687,-9.6808
15.77083,0.14171,-0.45654,-9.68978
15.78086,-0.01856,-0.4938,-9.81653
15.7909,-0.12719,-0.57925,-9.82161
15.80093,-0.09816,-0.6394,-9.72076
15.81097,0.05462,-0.56368,-9.64803
15.82101,0.20246,-0.45789,-9.66045
15.83104,0.227,-0.40357,-9.71073
15.84108,0.08664,-0.46328,-9.79932
15.85112,-0.11582,-0.61875,-9.79573
15.86115,-0.21712,-0.75118,-9.71762
15.87119,-0.2065,-0.72844,-9.66824
15.88123,-0.1224,-0.63521,-9.764
15.89126,0.01152,-0.6177,-9.80321
15.9013,0.15143,-0.56922,-9.72495
15.91134,0.28596,-0.49261,-9.66898
15.92137,0.27952,-0.4546,-9.6428
15.93141,0.15742,-0.4941,-9.81024
15.94145,-0.03187,-0.57117,-9.96317
15.95148,-0.19408,-0.65362,-9.97978
15.96152,-0.11387,-0.71572,-9.86935
15.97156,0.08544,-0.62713,-9.68634
15.98159,0.23628,-0.49051,-9.71238
15.99163,0.30391,-0.41539,-9.84466
16.00166,0.164,-0.4139,-9.8463
16.0117,-0.03861,-0.59586,-9.82865
16.02174,-0.1444,-0.77931,-9.745
16.03177,-0.14889,-0.7841,-9.7453
16.04181,0.00718,-0.65586,-9.83194
16.05185,0.21458,-0.47091,-9.82476
16.06188,0.35838,-0.31514,-9.8903
16.07192,0.3108,-0.31364,-9.83927
16.08196,0.18316,-0.42826,-9.68574
16.09199,-0.00449,-0.5179,-9.68784
16.10203,-0.14231,-0.54573,-9.84675
16.11207,-0.14126,-0.55471,-9.97409
16.1221,-0.04474,-0.53061,-9.99445
16.13214,0.10116,-0.48213,-9.90721
16.14217,0.24271,-0.41599,-9.71477
16.15221,0.34162,-0.39534,-9.65192
16.16225,0.37484,-0.3696,-9.6606
16.17228,0.26067,-0.36811,-9.71777
16.18232,0.04788,-0.39699,-9.94207
16.19236,-0.2056,-0.48707,-10.14348
16.20239,-0.22326,-0.60903,-10.03335
16.21243,0.00105,-0.68399,-9.67751
16.22247,0.23029,-0.59316,-9.351
16.2325,0.36018,-0.46732,-9.37704
16.24254,0.29045,-0.42228,-9.57845
16.25258,0.11687,-0.45595,-9.72016
16.26261,0.02514,-0.5788,-9.77223
16.27265,0.05312,-0.6177,-9.62664
16.28268,0.09936,-0.49545,-9.70624
16.29272,0.19004,-0.42527,-9.89778
16.30276,0.23314,-0.2876,-9.94043
16.31279,0.14904,-0.28985,-10.00791
16.32283,0.041,-0.36871,-9.95314
16.33287,0.02783,-0.42692,-9.93459
16.3429,0.07063,-0.41509,-9.87743
16.35294,0.22012,-0.28401,-9.909
16.36298,0.28057,-0.18435,-9.97948
16.37301,0.04384,-0.1661,-10.06238
16.38305,-0.32037,-0.22087,-10.43857
16.39309,-0.61441,-0.3283,-10.82942
16.40312,-0.67352,-0.35898,-10.84035
16.41316,-0.46163,-0.29404,-10.63654
16.4232,-0.19842,-0.17597,-10.43528
16.43323,-0.19812,-0.0826,-10.54137
16.44327,-0.56683,0.02888,-11.15129
16.4533,-1.0518,0.08754,-11.73234
16.46334,-1.57913,0.00868,-12.04987
16.47338,-2.1687,-0.02185,-12.0762
16.48341,-2.73119,0.08559,-12.60128
16.49345,-2.96672,0.31304,-13.75304
16.50349,-2.76156,0.64165,-15.0498
16.51352,-2.13548,1.34404,-16.15338
16.52356,-1.73804,2.53681,-17.24828
16.5336,-1.68163,3.35577,-18.80765
16.54363,-2.93948,4.10471,-21.23208
16.55367,-5.48721,4.0456,-25.18281
16.56371,-6.11554,2.11154,-25.82356
16.57374,-4.5228,1.60307,-21.31034
16.58378,-2.1069,1.75061,-16.81986
16.59381,-0.50787,1.79011,-14.28066
16.60385,-0.10101,1.42201,-12.93393
16.61389,-0.05402,0.38996,-12.39269
16.62392,-0.07766,-0.20007,-12.13142
16.63396,-0.25438,-0.15532,-11.57387
16.644,-0.90561,0.02604,-10.72378
16.65403,-2.12276,0.03502,-10.04891
16.66407,-3.18668,-0.92057,-9.53715
16.67411,-3.72747,-1.99661,-8.3815
16.68414,-3.77341,-2.03387,-7.62269
16.69418,-3.62288,-1.87227,-7.9676
16.70422,-3.3257,-1.55264,-9.06953
16.71425,-2.81064,-1.03729,-9.89134
16.72429,-2.23753,-0.69282,-9.5403
16.73432,-1.59289,-0.59735,-8.5066
16.74436,-0.98252,-0.85757,-7.20475
16.7544,-0.52014,-1.23316,-6.43172
16.76443,-0.10475,-1.42096,-6.00167
16.77447,0.36377,-1.50296,-5.60213
16.78451,0.91414,-1.32953,-5.2873
16.79454,1.46765,-1.05719,-5.32755
16.80458,1.54441,-1.10148,-5.27458
16.81462,1.21775,-1.39762,-5.47674
16.82465,0.71347,-1.49608,-5.95393
16.83469,0.3503,-1.45014,-6.21909
16.84473,0.46373,-1.46136,-6.30199
16.85476,0.84261,-1.47992,-5.79038
16.8648,1.28434,-1.35572,-5.1806
16.87484,1.73699,-1.20623,-5.04787
16.88487,2.0017,-1.29811,-5.06972
16.89491,2.01173,-1.58915,-4.85589
16.90494,1.84922,-1.74582,-4.40862
16.91498,1.80598,-1.77859,-4.47327
16.92502,2.02594,-1.91641,-5.11387
16.93505,2.32657,-2.06889,-5.57161
16.94509,2.32028,-1.90608,-5.77751
16.95513,2.03791,-1.51418,-6.16013
16.96516,1.64362,-1.33896,-6.37755
16.9752,1.05225,-1.63494,-6.18288
16.98524,0.57401,-2.13488,-5.84499
16.99527,0.4935,-2.50688,-5.77227
17.00531,0.6415,-2.43311,-6.20637
17.01535,0.9092,-1.96399,-6.76736
17.02538,1.21835,-1.42889,-7.4126
17.03542,1.39358,-1.19306,-7.84685
17.04545,1.40794,-1.38834,-8.00008
17.05549,1.17765,-1.7771,-7.96551
17.06553,0.908,-2.01218,-8.09674
17.07556,0.56608,-2.02116,-8.27436
17.0856,0.16924,-2.05123,-8.51483
17.09564,-0.28865,-2.24816,-8.64816
17.10567,-0.59391,-2.52364,-8.77565
17.11571,-0.71257,-2.78954,-8.79211
17.12575,-0.63222,-2.90357,-8.65175
17.13578,-0.38936,-2.88561,-8.71459
17.14582,-0.14051,-2.69602,-8.98484
17.15586,-0.00643,-2.57915,-9.26706
17.16589,-0.1251,-2.69063,-9.29429
17.17593,-0.37035,-2.87184,-9.20705
17.18597,-0.55246,-2.92137,-9.26751
17.196,-0.75791,-2.88037,-9.4743
17.20604,-1.03669,-2.86496,-9.69637
17.21607,-1.13919,-2.83892,-9.78839
17.22611,-1.0328,-2.74091,-9.7248
17.23615,-0.85787,-2.65203,-9.55825
17.24618,-0.73278,-2.6851,-9.34173
17.25622,-0.7452,-2.70246,-9.23892
17.26626,-0.82181,-2.66729,-9.2916
17.27629,-0.93583,-2.51541,-9.47999
17.28633,-1.04282,-2.44508,-9.78959
17.29637,-1.02307,-2.52199,-9.96796
17.3064,-0.99479,-2.59367,-9.91439
17.31644,-1.12049,-2.54982,-9.70744
17.32648,-1.39223,-2.47067,-9.69891
17.33651,-1.59603,-2.48728,-9.78525
17.34655,-1.64871,-2.53486,-9.72764
17.35659,-1.61085,-2.50942,-9.59731
17.36662,-1.50027,-2.43281,-9.52204
17.37666,-1.43847,-2.37041,-9.35459
17.38669,-1.43592,-2.32956,-9.28007
17.39673,-1.42859,-2.25324,-9.32242
17.40677,-1.49817,-2.23424,-9.19748
17.4168,-1.57823,-2.33584,-8.99083
17.42684,-1.60426,-2.45899,-8.87575
17.43688,-1.49862,-2.43715,-8.79779
17.44691,-1.37682,-2.30996,-8.73719
17.45695,-1.29766,-2.17558,-8.5877
17.46699,-1.24798,-2.1889,-8.51049
17.47702,-1.22673,-2.22586,-8.32688
17.48706,-1.18094,-2.23214,-8.15525
17.4971,-1.19126,-2.2085,-7.98676
17.50713,-1.23885,-2.23858,-7.88904
17.51717,-1.28224,-2.23708,-7.66085
17.5272,-1.3439,-2.18516,-7.40721
17.53724,-1.2996,-2.12007,-7.11766
17.54728,-1.15565,-2.00963,-6.93825
17.55731,-0.94975,-1.89531,-6.82811
17.56735,-0.66903,-1.72801,-6.52525
17.57739,-0.55366,-1.6945,-6.01663
17.58742,-0.76121,-1.7958,-5.52836
17.59746,-1.03564,-1.98883,-5.42346
17.6075,-1.15131,-2.14401,-5.47898
17.61753,-1.11136,-2.03567,-5.52028
17.62757,-0.9092,-1.93077,-5.42706
17.63761,-0.85742,-2.10286,-4.65343
17.64764,-1.053,-2.19578,-3.89163
17.65768,-1.13141,-2.24052,-3.82908
17.66772,-1.18498,-2.25399,-4.31615
17.67775,-1.27925,-2.14446,-4.97395
17.68779,-1.26369,-2.09089,-5.6575
17.69782,-1.11869,-2.07951,-5.84814
17.70786,-0.94451,-1.99527,-5.61276
17.7179,-0.8878,-1.52989,-5.5134
17.72793,-0.93449,-0.90815,-5.83153
17.73797,-1.11076,-0.70509,-6.55158
17.74801,-1.41916,-1.01873,-7.22705
17.75804,-1.75929,-1.47378,-7.10045
17.76808,-1.8175,-1.65589,-6.26323
17.77812,-1.52196,-1.56177,-5.4088
17.78815,-1.20204,-1.24229,-5.12105
17.79819,-1.16373,-0.70135,-5.79337
17.80823,-1.41647,-0.69402,-7.24216
17.81826,-1.91117,-1.4235,-8.23261
17.8283,-2.18037,-2.14775,-8.6094
17.83834,-1.97372,-2.3321,-8.9793
17.84837,-1.61848,-2.01562,-9.42403
17.85841,-1.39776,-1.73819,-10.09725
17.86844,-1.3219,-1.3825,-10.73306
17.87848,-1.37726,-1.33537,-11.79234
17.88852,-1.5899,-1.83231,-12.85956
17.89855,-2.1078,-2.16376,-13.18547
17.90859,-2.56928,-2.33659,-13.10182
17.91863,-2.55671,-2.55237,-12.65575
17.92866,-2.26776,-2.58843,-12.06304
17.9387,-2.1904,-2.70021,-11.8281
17.94874,-2.5817,-2.93095,-12.20699
17.95877,-3.27422,-3.13221,-13.12037
17.96881,-3.93023,-3.38361,-13.98872
17.97885,-4.3576,-3.39453,-14.2449
17.98888,-4.44618,-3.13311,-14.25957
17.99892,-4.3576,-2.93828,-14.23802
18.00895,-4.27215,-2.70844,-14.25508
18.01899,-4.09468,-2.43715,-14.31688
18.02903,-3.67345,-2.12141,-14.25463
18.03906,-3.09151,-1.75345,-14.15602
18.0491,-2.6821,-1.37981,-14.28515
18.05914,-2.58125,-1.08442,-14.84225
18.06917,-2.56524,-0.78216,-15.23161
18.07921,-2.44134,-0.55665,-15.19375
18.08925,-2.25474,-0.47495,-14.89343
18.09928,-2.21434,-0.58733,-14.40591
18.10932,-2.27958,-0.9511,-13.6242
18.11936,-2.34437,-1.37472,-12.76199
18.12939,-2.33255,-1.62207,-11.89215
18.13943,-2.22077,-1.68926,-11.26232
18.14947,-2.01936,-1.66651,-10.92624
18.1595,-1.86089,-1.5905,-10.78019
18.16954,-1.756,-1.35302,-10.74144
18.17957,-1.74807,-1.05195,-10.83122
18.18961,-1.86104,-0.89379,-11.14351
18.19965,-1.99123,-0.9909,-11.23255
18.20968,-1.99407,-1.22823,-10.88434
18.21972,-1.91731,-1.3852,-10.38141
18.22976,-1.89755,-1.35751,-10.03395
18.23979,-1.91985,-1.30185,-9.96601
18.24983,-1.83171,-1.31816,-9.83703
18.25987,-1.65125,-1.33417,-9.65312
18.2699,-1.47288,-1.26833,-9.38677
18.27994,-1.38295,-1.2194,-9.19673
18.28998,-1.36754,-1.21356,-9.17054
18.30001,-1.41288,-1.12498,-9.23608
18.31005,-1.39552,-0.91788,-9.56603
18.32009,-1.35422,-0.67621,-9.98382
18.33012,-1.22508,-0.54483,-10.26604
18.34016,-1.08787,-0.57566,-10.23925
18.35019,-0.92521,-0.79727,-9.56558
18.36086,-0.92521,-0.79727,-9.56558
18.37089,-0.82121,-0.97429,-9.19972
18.38093,-0.88331,-1.07335,-8.91735
18.39097,-1.0129,-1.08323,-9.06475
18.401,-1.00542,-1.0123,-9.42911
18.41104,-0.86191,-0.81523,-9.70624
18.42108,-0.67921,-0.67097,-9.8701
18.43111,-0.60005,-0.66364,-9.77642
18.44115,-0.62563,-0.74744,-9.60958
18.45119,-0.79862,-0.84336,-9.54793
18.46122,-0.993,-1.0117,-9.58833
18.47126,-1.04657,-1.10014,-9.59072
18.4813,-0.9707,-1.12049,-9.57726
18.49133,-0.77452,-1.02786,-9.56618
18.50137,-0.60903,-0.92506,-9.47445
18.51141,-0.58,-0.9689,-9.40338
18.52144,-0.58314,-1.02756,-9.39739
18.53148,-0.59526,-1.07275,-9.53566
18.54151,-0.56787,-1.13755,-9.71028
18.55155,-0.39265,-1.20339,-9.72435
18.56159,-0.12151,-1.20219,-9.71193
18.57162,0.164,-1.24469,-9.71836
18.58166,0.48363,-1.32205,-9.68739
18.5917,0.77677,-1.26549,-9.67033
18.60173,0.99524,-1.1965,-9.8065
18.61177,1.10747,-1.17017,-9.93743
18.62181,1.1567,-1.40495,-9.95569
18.63184,1.32624,-2.07158,-9.67228
18.64188,1.68238,-2.85164,-9.0239
18.65192,2.36203,-3.17202,-8.64471
18.66195,3.1795,-2.88965,-9.13732
18.67199,4.03124,-2.27733,-10.24239
18.68203,4.85798,-1.5911,-11.37261
18.69206,5.30959,-0.93509,-12.37099
18.7021,5.27398,-0.51894,-13.25041
18.71213,4.92861,-0.37335,-13.2754
18.72217,4.51142,-0.37499,-12.64872
18.73221,4.15993,-0.50188,-12.00887
18.74224,3.64023,-0.53047,-11.08156
18.75228,2.86047,-0.61142,-10.31302
18.76232,2.2103,-0.67636,-10.10712
18.77235,1.73939,-0.43559,-10.22354
18.78239,1.15251,0.05567,-10.51129
18.79243,0.45565,0.29,-10.78304
18.80246,-0.23508,0.3916,-10.91038
18.8125,-0.74505,0.44368,-10.95168
18.82254,-1.12827,0.29718,-10.66258
18.83257,-1.63808,0.06868,-9.95359
18.84261,-2.33285,-0.28072,-9.12595
18.85264,-3.1572,-0.76599,-8.62302
18.86268,-4.02376,-1.26444,-8.6109
18.87272,-4.63787,-1.45837,-8.81336
18.88275,-4.84556,-1.18693,-8.80617
18.89279,-4.83569,-0.85847,-8.76592
18.90283,-4.86891,-0.73891,-8.64576
18.91286,-4.85828,-0.72709,-8.40649
18.9229,-4.61752,-0.76839,-8.31252
18.93294,-4.34952,-0.65526,-8.21765
18.94297,-4.32363,-0.39624,-8.57558
18.95301,-4.4188,-0.18959,-9.15243
18.96304,-4.54928,-0.17133,-9.17757
18.97308,-4.78002,-0.21742,-8.19296
18.98312,-4.79948,-0.64329,-7.17198
18.99315,-4.46803,-1.31367,-6.82243
19.00319,-3.88579,-1.72487,-7.2887
19.01323,-3.34994,-1.60501,-8.84897
19.02326,-3.27183,-0.65332,-10.3042
19.0333,-3.27931,-0.00943,-11.08276
19.04396,-3.27931,-0.00943,-11.08276
19.054,-3.30101,-0.6593,-10.49887
19.06404,-3.24818,-1.1552,-10.07315
19.07407,-2.97869,-1.15954,-9.68455
19.08411,-2.47979,-0.82031,-9.53865
19.09415,-2.02849,-0.57745,-9.89658
19.10418,-2.05228,-0.49784,-10.05879
19.11422,-2.36472,-0.77737,-10.71749
19.12426,-2.6025,-1.32564,-11.07408
19.13429,-2.63183,-1.64422,-10.64058
19.14433,-2.34018,-1.62491,-10.4254
19.15436,-1.87212,-1.39956,-10.39488
19.1644,-1.36739,-1.15131,-10.08004
19.17444,-0.97264,-1.10298,-9.46174
19.18447,-0.7015,-1.29451,-8.90628
19.19451,-0.46223,-1.34404,-8.95027
19.20455,-0.34058,-1.17211,-9.42971
19.21458,-0.29374,-1.00871,-9.84795
19.22462,-0.34252,-0.88885,-10.09036
19.23466,-0.32322,-0.91294,-10.34998
19.24469,-0.20216,-0.92775,-10.29611
19.25473,-0.11447,-0.85039,-10.06388
19.26477,-0.08529,-0.87837,-9.87129
19.2748,-0.05417,-1.01379,-9.67377
19.28484,0.0826,-1.08757,-9.61736
19.29488,0.24361,-0.95454,-9.77822
19.30491,0.16011,-0.74415,-10.06103
19.31495,0.07991,-0.68354,-10.34624
19.32498,0.17702,-0.599,-10.35148
19.33502,0.27892,-0.44592,-10.27322
19.34506,0.42318,-0.36886,-10.22459
19.35509,0.49336,-0.43694,-9.92621
19.36513,0.42751,-0.5158,-9.66988
19.37517,0.24989,-0.62369,-9.72225
19.3852,0.13572,-0.66379,-10.04068
19.39524,0.08634,-0.5384,-10.41388
19.40528,0.12779,-0.43679,-10.41059
19.41531,0.2689,-0.46852,-10.16548
19.42535,0.34028,-0.48019,-9.95644
19.43539,0.26531,-0.42617,-10.04712
19.44542,0.29538,-0.51565,-10.07854
19.45546,0.42901,-0.46941,-9.80111
19.4655,0.52059,-0.3319,-9.79827
19.47553,0.43185,-0.2695,-9.91155
19.48557,0.27997,-0.31544,-9.9714
19.4956,0.25423,-0.36407,-9.83957
19.50564,0.30496,-0.38023,-9.64235
19.51568,0.40941,-0.36422,-9.69457
19.52571,0.36901,-0.23059,-9.70968
19.53575,0.21428,-0.26097,-9.67512
19.54579,0.03083,-0.47974,-9.54538
19.55582,-0.19498,-0.6831,-9.41146
19.56586,-0.3289,-0.84186,-9.25553
19.5759,-0.29479,-0.88331,-9.20077
19.58593,-0.11417,-0.81268,-9.24745
19.59597,-0.04384,-0.69686,-9.24177
19.60601,-0.17897,-0.63506,-9.35175
19.61604,-0.40103,-0.68848,-9.67527
19.62608,-0.58448,-0.73517,-9.79722
19.63612,-0.56862,-0.82765,-9.75158
19.64615,-0.31903,-0.89394,-9.56992
19.65619,-0.03576,-0.80056,-9.46637
19.66622,0.10983,-0.71946,-9.50378
19.67626,0.1643,-0.80266,-9.46144
19.6863,0.19258,-0.88047,-9.38811
19.69633,0.17478,-0.81672,-9.35205
19.70637,0.10849,-0.74056,-9.56723
19.71641,0.08006,-0.75522,-9.88252
19.72644,0.16251,-0.81208,-9.89
19.73648,0.35823,-0.72993,-9.72195
19.74652,0.56458,-0.62728,-9.66001
19.75655,0.69163,-0.57985,-9.71417
19.76659,0.67891,-0.6213,-9.66345
19.77663,0.58014,-0.69567,-9.7046
19.78666,0.43993,-0.7238,-9.8258
19.7967,0.24989,-0.64703,-10.01809
19.80674,0.16804,-0.7003,-10.18044
19.81677,0.35045,-0.78904,-9.93938
19.82681,0.52149,-0.73427,-9.66943
19.83684,0.56189,-0.66708,-9.56977
19.84688,0.37484,-0.63207,-9.4981
19.85692,0.07961,-0.76764,-9.7227
19.86695,-0.11941,-0.8673,-10.00911
19.87699,-0.22491,-0.8863,-10.03649
19.88703,-0.16086,-0.87987,-9.88117
19.89706,0.01526,-0.80819,-9.69741
19.9071,0.04339,-0.71826,-9.57351
19.91714,-0.06659,-0.71781,-9.67362
19.92717,-0.15458,-0.79562,-9.85019
19.93721,-0.0422,-0.83812,-9.66195
19.94725,0.15098,-0.785,-9.36417
19.95728,0.2876,-0.73637,-9.28486
19.96732,0.29598,-0.66873,-9.32601
19.97736,0.09771,-0.56413,-9.68948
19.98739,-0.19094,-0.4522,-10.30883
19.99743,-0.25678,-0.48153,-10.45174
20.00747,-0.06928,-0.55216,-10.03081
20.0175,0.12555,-0.59122,-9.68604
20.02754,0.15443,-0.62085,-9.57681
20.03757,-0.03202,-0.66574,-9.54598
20.04761,-0.32531,-0.86895,-9.76146
20.05765,-0.36631,-1.04267,-9.79662
20.06768,-0.20785,-0.89079,-9.72181
20.07772,0.00898,-0.66215,-9.84346
20.08776,0.12555,-0.48542,-9.94237
20.09779,0.25304,-0.48438,-10.02258
20.10783,0.33085,-0.54274,-9.87503
20.11787,0.35434,-0.63791,-9.69263
20.1279,0.31873,-0.68235,-9.72405
20.13794,0.19094,-0.64838,-9.77657
20.14798,0.01736,-0.60469,-9.96661
20.15801,-0.09532,-0.66394,-10.06956
20.16805,-0.1034,-0.71063,-9.99669
20.17809,-0.1221,-0.66035,-10.06103
20.18812,-0.1022,-0.5143,-10.2611
20.19816,-0.05686,-0.45939,-10.39263
20.20819,-0.07931,-0.47959,-10.33322
20.21823,-0.0603,-0.57685,-10.19795
20.22827,-0.04953,-0.60753,-10.06522
20.2383,-0.0823,-0.62758,-9.94836
20.24834,-0.1444,-0.67262,-9.89838
20.25838,-0.28087,-0.62264,-10.02557
20.26841,-0.34686,-0.6394,-10.22384
20.27845,-0.21473,-0.67531,-10.04846
20.28849,0.03861,-0.60409,-9.77463
20.29852,0.18675,-0.56638,-9.581
20.30856,0.16894,-0.64165,-9.50678
20.3186,0.03786,-0.722,-9.56918
20.32863,-0.0835,-0.76285,-9.57322
20.33867,-0.20815,-0.74669,-9.6642
20.34871,-0.13318,-0.77467,-9.60449
20.35874,0.0431,-0.75702,-9.40233
20.36878,0.2077,-0.7009,-9.28352
20.37882,0.34731,-0.59885,-9.35145
20.38885,0.38008,-0.50413,-9.44737
20.39889,0.26306,-0.50278,-9.62155
20.40892,0.13512,-0.58059,-9.682
20.41896,0.09951,-0.62309,-9.63591
20.429,0.12495,-0.60259,-9.59401
20.43903,0.13228,-0.61052,-9.44872
20.44907,0.22745,-0.67382,-9.332
20.45911,0.31214,-0.61381,-9.39425
20.46914,0.38547,-0.4769,-9.54957
20.47918,0.42946,-0.43245,-9.59162
20.48922,0.36901,-0.50996,-9.50812
20.49925,0.25064,-0.6418,-9.47131
20.50929,0.10505,-0.69926,-9.57711
20.51933,0.00344,-0.69611,-9.73438
20.52936,-0.05611,-0.71377,-9.88611
20.5394,-0.09248,-0.74639,-9.87309
20.54944,-0.09188,-0.73382,-9.63187
20.55947,-0.07542,-0.80296,-9.51082
20.56951,-0.07961,-0.87029,-9.46203
20.57954,-0.19423,-0.81942,-9.79543
20.58958,-0.37305,-0.75253,-10.58192
20.59962,-0.55964,-0.69492,-11.12436
20.60965,-0.64135,-0.78979,-11.31919
20.61969,-0.61217,-0.93119,-11.18691
20.62973,-0.43455,-0.90366,-11.34238
20.63976,-0.20246,-0.69148,-11.58958
20.6498,0.03112,-0.47704,-11.65677
20.65984,0.00224,-0.28267,-11.646
20.66987,-0.40597,-0.26441,-11.79833
20.67991,-1.06288,-0.48123,-12.05825
20.68995,-2.15583,-0.45415,-12.52108
20.69998,-3.24295,-0.78021,-13.61343
20.71002,-3.60028,-1.35123,-14.02823
20.72006,-3.58921,-1.22478,-13.93321
20.73009,-3.4264,-0.93,-14.07416
20.74013,-2.96178,-0.57147,-14.05756
20.75016,-2.31834,-0.07257,-13.34139
20.7602,-1.49952,0.43604,-12.28749
20.77024,-1.18453,1.67025,-12.05421
20.78027,-1.93691,2.76381,-13.15629
20.79031,-3.16588,3.0149,-14.96226
20.80035,-4.37091,2.53845,-16.73098
20.81038,-4.79199,1.73954,-16.86221
20.82042,-4.92592,1.53334,-15.85291
20.83046,-4.74665,1.69794,-15.02391
20.84049,-3.74842,1.79371,-14.41743
20.85053,-2.36951,1.95831,-13.60296
20.86057,-1.24349,2.18576,-12.6538
20.8706,-0.92835,2.724,-12.0765
20.88064,-1.7156,3.23023,-12.25008
20.89068,-2.87214,2.93005,-13.20582
20.90071,-3.55045,1.87107,-13.46873
20.91075,-3.95806,0.67786,-11.83798
20.92079,-3.85736,-0.09906,-9.76894
20.93082,-3.37912,-0.5146,-8.2374
20.94086,-3.04542,-0.55665,-7.04808
20.95089,-2.79987,-0.40013,-6.64436
20.96093,-2.44328,-0.082,-7.50014
20.97097,-2.0222,0.28686,-9.26616
20.981,-1.4449,0.85802,-10.98535
20.99104,-0.9514,1.41512,-11.68715
21.00108,-0.53765,1.98809,-11.09518
21.01111,-0.0618,2.18531,-10.11924
21.02115,0.48677,1.82782,-8.86693
21.03119,0.93105,1.19964,-7.64813
21.04122,1.11764,0.62908,-6.90503
21.05126,1.04028,0.26785,-6.38294
21.0613,0.90351,0.23089,-5.90799
21.07133,0.80909,0.17687,-5.77242
21.08137,0.82645,0.3509,-6.41766
21.09141,1.01394,0.69088,-7.30142
21.10144,1.20728,1.02352,-7.8036
21.11148,1.44026,1.42231,-8.01384
21.12152,1.72906,1.69345,-8.20044
21.13155,2.084,1.75315,-8.38629
21.14159,2.40243,1.70033,-8.19879
21.15162,2.5199,1.40854,-7.55535
21.16166,2.38597,0.93793,-6.89814
21.1717,2.15703,0.42362,-6.46569
21.18173,1.89651,-0.03038,-6.29585
21.19177,1.74657,-0.23284,-6.14831
21.20181,1.75061,-0.28147,-6.07169
21.21184,1.88469,-0.32606,-6.35481
21.22188,2.06784,-0.26067,-6.78502
21.23192,2.16511,-0.14036,-6.96862
21.24195,2.17543,0.00943,-6.76137
21.25199,2.1078,-0.10026,-6.62296
21.26203,2.07742,-0.37305,-6.62161
21.27206,2.20042,-0.76839,-6.59543
21.2821,2.24726,-1.07425,-6.77948
21.29214,2.08999,-1.09969,-6.93825
21.30217,1.69644,-1.04836,-7.1214
21.31221,1.30289,-1.053,-7.33359
21.32224,0.96307,-1.2987,-7.54563
21.33228,0.58179,-1.62985,-7.77173
21.34232,0.17223,-1.8187,-7.98032
21.35235,-0.31155,-1.91087,-7.97583
21.36239,-0.69073,-1.99362,-7.95249
21.37243,-0.87343,-2.08011,-8.04347
21.38246,-0.94661,-2.12635,-8.04811
21.3925,-0.9098,-2.09059,-8.09405
21.40254,-0.74056,-2.06814,-8.28723
21.41257,-0.72514,-1.96235,-8.2594
21.42261,-0.8875,-1.83516,-8.197
21.43265,-1.01828,-1.81705,-8.35666
21.44268,-1.03564,-1.85835,-8.64382
21.45272,-1.04731,-1.79071,-8.91466
21.46276,-1.02906,-1.61698,-9.08076
21.47279,-1.07006,-1.46091,-9.16126
21.48283,-1.21925,-1.46031,-9.06011
21.49287,-1.40719,-1.6086,-9.02015
21.5029,-1.57449,-1.7952,-8.99891
21.51294,-1.67938,-1.98659,-8.86543
21.52297,-1.83201,-2.02011,-8.60671
21.53301,-1.90863,-1.94334,-8.47068
21.54305,-1.89875,-1.87481,-8.62391
21.55308,-1.80613,-1.75046,-8.7942
21.56312,-1.68028,-1.51897,-8.88952
21.57316,-1.62701,-1.32399,-8.88503
21.58319,-1.68253,-1.24513,-8.79914
21.59323,-1.81615,-1.32669,-8.58576
21.60327,-1.9423,-1.46869,-8.29875
21.6133,-1.9809,-1.50236,-7.98691
21.62334,-1.92898,-1.49952,-7.72744
21.63338,-1.76483,-1.41437,-7.49804
21.64341,-1.49697,-1.31891,-7.45539
21.65345,-1.29242,-1.17091,-7.28466
21.66349,-1.1754,-1.01484,-6.81943
21.67352,-1.1365,-1.02382,-6.3783
21.68356,-1.04941,-1.06542,-5.9885
21.6936,-0.93553,-0.99449,-5.72753
21.70363,-0.83752,-0.78216,-5.64852
21.71367,-0.7413,-0.54842,-5.60468
21.7237,-0.72021,-0.50144,-5.34909
21.73374,-0.83692,-0.69596,-4.82162
21.74378,-1.09355,-1.06602,-4.47641
21.75381,-1.42664,-1.50087,-4.3748
21.76385,-1.57763,-1.74896,-4.57188
21.77389,-1.35557,-1.71978,-4.93355
21.78392,-0.99105,-1.50356,-4.96468
21.79396,-0.58493,-1.23825,-4.94642
21.804,-0.21862,-0.98881,-5.02513
21.81403,-0.03382,-0.75522,-5.22804
21.82407,-0.2472,-0.5559,-5.41763
21.83411,-0.70883,-0.68758,-5.50397
21.84414,-1.09355,-1.03953,-5.43499
21.85418,-1.24528,-1.31681,-5.31019
21.86422,-1.02621,-1.5878,-5.53869
21.87425,-0.59765,-1.60262,-6.15459
21.88429,-0.19303,-1.39013,-7.0403
21.89432,-0.01227,-0.95918,-7.68763
21.90436,-0.24615,-0.61097,-7.91538
21.9144,-0.62713,-0.75387,-8.11724
21.92443,-0.89528,-0.96905,-8.40739
21.93447,-1.07814,-1.05809,-8.9995
21.94451,-1.32414,-1.07021,-9.68604
21.95454,-1.60771,-1.13306,-10.48675
21.96458,-1.81615,-1.10687,-11.09413
21.97462,-1.97522,-0.92117,-11.46538
21.98465,-2.18187,-0.51386,-12.02563
21.99469,-2.53426,-0.23867,-12.76109
22.00473,-2.89983,-0.38487,-13.33062
22.01476,-3.14463,-0.56907,-13.46768
22.0248,-3.13132,-0.76629,-13.4617
22.03484,-3.00248,-0.87164,-13.45885
22.04487,-2.89893,-0.722,-13.40663
22.05491,-2.79523,-0.40597,-13.59802
22.06495,-2.57451,-0.1016,-13.90822
22.07498,-2.32282,0.15652,-14.02209
22.08502,-2.24681,0.3518,-13.97316
22.09505,-2.34213,0.46313,-14.10948
22.10509,-2.56628,0.34342,-14.63905
22.11513,-2.61776,0.31155,-15.20722
22.12516,-2.28841,0.50173,-15.68382
22.1352,-1.78069,0.86311,-15.70566
22.14524,-1.45328,0.99704,-15.37152
22.15527,-1.32938,0.88256,-14.84974
22.16531,-1.29227,0.61187,-14.2862
22.17535,-1.32908,0.30406,-13.55148
22.18538,-1.31816,0.20231,-12.76394
22.19542,-1.21491,0.30661,-12.37338
22.20546,-1.2384,0.27922,-12.36216
22.21549,-1.4847,0.12076,-12.49279
22.22553,-1.70961,-0.09592,-12.50895
22.23557,-1.79326,-0.30825,-12.30216
22.2456,-1.68597,-0.34866,-11.92552
22.25564,-1.41497,-0.16131,-11.49187
22.26568,-1.17166,0.05731,-11.24646
22.27571,-1.11315,0.19139,-11.03069
22.28575,-1.10642,0.1875,-10.93267
22.29578,-1.17256,0.25049,-10.84454
22.30582,-1.33746,0.30676,-10.86085
22.31586,-1.50491,0.24451,-10.98535
22.32589,-1.55444,0.16685,-11.09952
22.33593,-1.46196,0.2285,-11.21235
22.34597,-1.31352,0.36302,-11.25125
22.356,-1.13036,0.46552,-11.20142
22.36667,-0.94406,0.46911,-10.81536
22.3767,-0.79443,0.3711,-10.35208
22.38674,-0.68714,0.30092,-9.88805
22.39678,-0.75776,0.23448,-9.58264
22.40681,-0.95289,0.04369,-9.63157
22.41685,-1.0536,-0.07557,-9.77972
22.42689,-0.93913,0.06913,-9.96377
22.43692,-0.75896,0.33294,-10.13929
22.44696,-0.63446,0.46582,-10.08692
22.457,-0.59571,0.41554,-9.89883
22.46703,-0.70689,0.28326,-9.81234
22.47707,-0.89558,0.06135,-9.81683
22.48711,-0.94137,-0.04474,-9.6392
22.49714,-0.89558,-0.07482,-9.41714
22.50718,-0.87074,-0.04504,-9.30955
22.51721,-0.85174,0.00569,-9.37943
22.52725,-0.80715,0.01152,-9.46114
22.53729,-0.77976,-0.01721,-9.51501
22.54732,-0.72036,-0.00793,-9.58833
22.55736,-0.71332,0.1242,-9.68604
22.5674,-0.66679,0.19647,-9.72869
22.57743,-0.60903,0.16325,-9.66674
22.58747,-0.54094,0.0624,-9.56229
22.59751,-0.48572,0.03038,-9.44273
22.60754,-0.4347,-0.02888,-9.28546
22.61758,-0.39415,-0.08065,-9.17638
22.62762,-0.40627,-0.13632,-9.29279
22.63765,-0.40387,-0.17148,-9.66075
22.64769,-0.29509,-0.04399,-10.06522
22.65773,-0.04923,0.08634,-10.24748
22.66776,0.20785,0.18331,-10.26634
22.6778,0.41659,0.25064,-10.27172
22.68784,0.48453,0.28012,-10.34849
22.69787,0.36093,0.15757,-10.68742
22.70791,0.32636,0.00539,-10.97667
22.71794,0.63416,-0.08649,-11.01093
22.72798,1.16822,-0.1019,-10.78348
22.73802,1.76168,-0.08155,-10.41358
22.74805,2.26162,-0.02155,-10.035
22.75809,2.47964,-0.05252,-9.78974
22.76813,2.63931,-0.32591,-9.83583
22.77816,2.80077,-0.52792,-9.65237
22.7882,2.95684,-0.51909,-9.51979
22.79824,3.10812,-0.32441,-9.57426
22.80827,3.16035,-0.27653,-9.72659
22.81831,3.03929,-0.40133,-9.6419
22.82835,2.83892,-0.76525,-9.37076
22.83838,2.62509,-1.18917,-9.0221
22.84842,2.47979,-1.47842,-8.66761
22.85846,2.26566,-1.5492,-8.49328
22.86849,1.93392,-1.44146,-8.59638
22.87853,1.81076,-1.13216,-9.01222
22.88856,1.77545,-0.76555,-9.61766
22.8986,1.73924,-0.44787,-10.02258
22.90864,1.56955,-0.24975,-10.14782
22.91867,1.29197,-0.16984,-10.16967
22.92871,1.06243,-0.13333,-10.14678
22.93875,1.07769,-0.05327,-9.90107
22.94878,1.34644,-0.02319,-9.4559
22.95882,1.67564,-0.06868,-8.98529
22.96886,1.74732,-0.05731,-8.49358
22.97889,1.43682,-0.05327,-8.20239
22.98893,0.81074,-0.18331,-8.27915
22.99897,-0.25199,-0.4341,-8.71205
23.009,-1.29212,-0.83752,-9.37509
23.01904,-1.75211,-1.18214,-9.82715
23.02907,-1.92763,-1.30289,-9.85034
23.03911,-1.68178,-1.22942,-9.63487
23.04977,-1.68178,-1.22942,-9.63487
23.05981,-1.94394,-0.85338,-9.67452
23.06985,-2.13623,-0.61531,-9.92112
23.07988,-2.32208,-0.56219,-10.1987
23.08992,-2.3939,-0.67382,-10.18254
23.09996,-2.42518,-0.84007,-9.85753
23.10999,-2.54758,-0.93972,-9.68544
23.12003,-2.69452,-0.95349,-9.77014
23.13007,-2.82471,-0.79652,-9.93653
23.1401,-2.76306,-0.61621,-10.05999
23.15014,-2.72026,-0.41988,-10.08153
23.16018,-2.77802,-0.35329,-9.96556
23.17021,-2.85329,-0.47525,-9.80081
23.18025,-2.8699,-0.79173,-9.57217
23.19029,-2.87903,-1.10717,-9.34247
23.20032,-2.79089,-1.28868,-9.13822
23.21036,-2.7053,-1.24558,-9.10261
23.2204,-2.67522,-1.09086,-9.28516
23.23043,-2.65188,-0.95514,-9.61945
23.24047,-2.53277,-0.86072,-9.85603
23.2505,-2.51346,-0.75687,-9.92232
23.26054,-2.55791,-0.75462,-10.0151
23.27058,-2.55476,-0.84755,-10.15531
23.28061,-2.44912,-0.9689,-10.20633
23.29065,-2.22855,-1.07604,-10.11116
23.30069,-1.90997,-1.15176,-9.87952
23.31072,-1.5287,-1.12632,-9.62664
23.32076,-1.21266,-0.98147,-9.49331
23.3308,-0.92641,-0.87822,-9.44228
23.34083,-0.72664,-0.75492,-9.51635
23.35087,-0.81059,-0.56758,-9.65866
23.36091,-0.89334,-0.55141,-9.78929
23.37094,-0.9683,-0.64,-9.88476
23.38098,-1.1139,-0.73726,-9.9081
23.39102,-1.14757,-0.86461,-9.91289
23.40105,-1.0105,-0.92311,-9.8677
23.41109,-0.82241,-0.89932,-9.79872
23.42113,-0.60394,-0.87179,-9.71118
23.43116,-0.473,-0.83408,-9.66539
23.4412,-0.54752,-0.81717,-9.71492
23.45123,-0.79383,-0.83857,-9.91813
23.46127,-0.90875,-0.96486,-10.12433
23.47131,-0.87329,-1.01514,-10.24883
23.48134,-0.65347,-0.97429,-10.27427
23.49138,-0.36856,-0.83303,-10.18389
23.50142,-0.21488,-0.61576,-10.10533
23.51145,-0.26755,-0.42362,-10.21157
23.52149,-0.32561,-0.45699,-10.4266
23.53153,-0.34207,-0.59451,-10.44755
23.54156,-0.34791,-0.75492,-10.34205
23.5516,-0.29898,-0.84186,-10.23132
23.56164,-0.17612,-0.83079,-10.08168
23.57167,-0.0214,-0.77437,-9.91529
23.58171,0.0618,-0.75238,-9.74994
23.59175,-0.05821,-0.79098,-9.67227
23.60178,-0.27638,-0.85682,-9.77747
23.61182,-0.40537,-0.94556,-9.9325
23.62186,-0.51206,-0.97444,-9.9292
23.63189,-0.66679,-0.97474,-9.92576
23.64193,-0.70404,-1.00512,-9.94506
23.65196,-0.63835,-1.06377,-9.94102
23.662,-0.47106,-1.05928,-9.84735
23.67204,-0.40028,-1.00497,-9.71402
23.68207,-0.31499,-1.07649,-9.63202
23.69211,-0.17957,-1.13889,-9.53266
23.70215,-0.08484,-1.11046,-9.5159
23.71218,-0.18944,-0.95334,-9.62708
23.72222,-0.36571,-0.85069,-9.98397
23.73226,-0.37424,-0.8887,-10.22519
23.74229,-0.26187,-0.8881,-10.12598
23.75233,-0.09697,-0.9077,-9.87369
23.76237,0.05567,-0.94137,-9.63636
23.7724,0.11253,-0.94676,-9.477
23.78244,-0.02783,-0.98117,-9.43345
23.79248,-0.29299,-1.10313,-9.60793
23.80251,-0.42213,-1.22912,-9.82505
23.81255,-0.33235,-1.20847,-9.87354
23.82259,-0.11956,-1.0533,-9.83688
23.83262,0.0223,-0.92027,-9.77343
23.84266,0.06764,-0.88166,-9.69128
23.85269,-0.14171,-0.94451,-9.69427
23.86273,-0.37065,-1.13425,-9.81623
23.87277,-0.45819,-1.25696,-9.84421
23.8828,-0.38696,-1.25217,-9.83463
23.89284,-0.18046,-1.0922,-9.82521
23.90288,0.05477,-0.9309,-9.81817
23.91291,0.16026,-0.79458,-9.68559
23.92295,0.15039,-0.78141,-9.63816
23.93299,0.19184,-0.92371,-9.80171
23.94302,0.26396,-0.95588,-9.82416
23.95306,0.31409,-0.848,-9.77807
23.9631,0.38128,-0.74924,-9.72719
23.97313,0.47271,-0.69252,-9.69801
23.98317,0.56548,-0.72305,-9.66599
23.99321,0.64718,-0.78889,-9.58683
24.00324,0.71572,-0.83528,-9.5566
24.01328,0.79847,-0.87194,-9.54658
24.02332,0.79936,-0.83288,-9.49166
24.03335,0.73697,-0.87269,-9.5367
24.04339,0.67965,-0.95499,-9.52443
24.05343,0.56309,-0.98955,-9.53416
24.06346,0.47136,-1.03714,-9.66554
24.0735,0.36841,-1.05016,-9.82236
24.08354,0.24152,-0.97549,-9.92426
24.09357,0.14021,-0.88481,-10.05191
24.10361,0.11328,-0.85697,-10.12882
24.11364,0.18495,-0.83453,-10.03859
24.12368,0.25992,-0.85039,-9.87608
24.13372,0.26217,-0.85712,-9.74365
24.14375,0.10579,-0.82914,-9.73093
24.15379,-0.07272,-0.85877,-9.83583
24.16383,-0.17104,-0.87358,-9.96542
24.17386,-0.1857,-0.8483,-9.99265
24.1839,-0.14709,-0.78979,-9.91918
24.19394,0.00389,-0.85533,-9.78136
24.20397,0.08933,-0.88017,-9.48957
24.21401,0.02514,-0.97279,-9.32392
24.22405,-0.01197,-1.07574,-9.34472
24.23408,0.00748,-1.13844,-9.4336
24.24412,0.06823,-1.0922,-9.37869
24.25416,0.11043,-1.00841,-9.21708
24.26419,0.00673,-1.02232,-9.25284
24.27423,-0.08814,-1.1338,-9.46368
24.28427,-0.10609,-1.14263,-9.64833
24.2943,-0.13078,-1.0922,-9.74799
24.30434,-0.10744,-0.99823,-9.82461
24.31438,-0.12465,-0.91488,-9.83553
24.32441,-0.27638,-0.93643,-9.76685
24.33445,-0.50473,-1.0741,-9.77059
24.34448,-0.60319,-1.28344,-9.82251
24.35452,-0.5381,-1.4265,-9.7866
24.36456,-0.41076,-1.42156,-9.59327
24.37459,-0.26381,-1.36754,-9.44019
24.38463,-0.25603,-1.26115,-9.4538
24.39467,-0.37469,-1.15864,-9.68036
24.4047,-0.50548,-1.07904,-10.00627
24.41474,-0.4733,-1.06108,-10.13061
24.42478,-0.31529,-1.08383,-10.00627
24.43481,-0.10864,-1.12228,-9.80755
24.44485,0.07542,-1.10971,-9.62185
24.45489,0.13722,-1.10477,-9.5183
24.46492,0.02738,-1.09011,-9.59267
24.47496,-0.20695,-1.08876,-9.8077
24.485,-0.31933,-1.16822,-9.93025
24.49503,-0.24122,-1.24917,-9.90212
24.50507,-0.09188,-1.22359,-9.73333
24.51511,0.05596,-1.15535,-9.53401
24.52514,0.10789,-1.11106,-9.46054
24.53518,0.00135,-1.10388,-9.59282
24.54521,-0.06225,-1.14188,-9.74679
24.55525,-0.00853,-1.14787,-9.8674
24.56529,0.12854,-1.05794,-9.84271
24.57532,0.28596,-0.93703,-9.78301
24.58536,0.39819,-0.85877,-9.74051
24.5954,0.4115,-0.83707,-9.72794
24.60543,0.27174,-0.86655,-9.74994
24.61547,0.08814,-0.91369,-9.81503
24.62551,0.00733,-0.98821,-9.85573
24.63554,0.05971,-1.07006,-9.80216
24.64558,0.15996,-1.10328,-9.68529
24.65562,0.26291,-1.07545,-9.58249
24.66565,0.26471,-1.0328,-9.55062
24.67569,0.1634,-1.01275,-9.6826
24.68573,0.06375,-0.98072,-9.805
24.69576,-0.00793,-0.98536,-9.83463
24.7058,0.03786,-1.01783,-9.80096
24.71584,0.14365,-1.00886,-9.74904
24.72587,0.20815,-0.96157,-9.73827
24.73591,0.25124,-0.91114,-9.72076
24.74595,0.27144,-0.85802,-9.68529
24.75598,0.21488,-0.83213,-9.69712
24.76602,0.07242,-0.86431,-9.77463
24.77605,-0.02245,-0.91518,-9.88177
24.78609,-0.01407,-0.96157,-9.88042
24.79613,0.0835,-1.00826,-9.85588
24.80617,0.23209,-0.99928,-9.73632
24.8162,0.31948,-0.96352,-9.56768
24.82624,0.24915,-0.91069,-9.48044
24.83627,0.06599,-0.9894,-9.5578
24.84631,-0.07287,-1.13769,-9.6202
24.85635,-0.11866,-1.24439,-9.61511
24.86638,-0.05596,-1.2613,-9.6018
24.87642,0.06315,-1.18708,-9.61736
24.88646,0.18675,-1.04163,-9.67422
24.89649,0.25648,-0.91952,-9.7643
24.90653,0.25199,-0.85727,-9.80022
24.91657,0.12779,-0.83154,-9.8879
24.9266,-0.07033,-0.80984,-10.02542
24.93664,-0.20859,-0.85069,-10.17356
24.94668,-0.25783,-0.91264,-10.15067
24.95671,-0.28102,-0.97713,-10.08513
24.96675,-0.26486,-1.01903,-10.00791
24.97679,-0.2457,-1.10492,-9.84017
24.98682,-0.3286,-1.23271,-9.8083
24.99686,-0.62549,-1.32848,-10.09365
25.00689,-1.08038,-1.4434,-10.78573
25.01693,-1.4868,-1.54965,-11.82272
25.02697,-1.83516,-1.56042,-13.10122
25.037,-2.23409,-1.36769,-14.12639
25.04704,-2.42847,-1.21476,-14.55166
25.05708,-2.44328,-1.33118,-14.70339
25.06711,-2.42578,-1.4262,-14.72868
25.07715,-2.56224,-1.43248,-14.98621
25.08719,-2.8684,-1.3834,-15.12193
25.09722,-3.13356,-1.41467,-15.05504
25.10726,-3.1581,-1.66502,-15.09589
25.1173,-2.90701,-1.81885,-15.38319
25.12733,-2.46109,-1.52556,-16.35733
25.13737,-2.08834,-0.94317,-17.69225
25.14741,-1.93601,-0.3931,-18.33779
25.15744,-1.43428,-0.39669,-16.99524
25.16748,-0.88481,-0.79443,-15.35327
25.17752,-0.66364,-1.16044,-14.31089
25.18755,-0.97803,-1.03115,-12.92225
25.19759,-2.47156,-0.54259,-12.53185
25.20763,-4.59492,-0.72499,-14.05726
25.21766,-5.16923,-1.51837,-15.69624
25.2277,-4.33111,-1.63105,-16.07407
25.23773,-3.11396,-1.11869,-14.76579
25.24777,-1.67729,-0.2496,-12.53379
25.25781,-0.45235,0.61112,-10.5698
25.26784,0.31813,1.23002,-9.75712
25.27788,0.66379,1.73161,-9.82895
25.28792,0.58628,2.03762,-10.17805
25.29795,0.19348,2.02505,-10.39847
25.30799,-0.49695,1.76064,-10.00028
25.31803,-0.9683,1.36529,-9.15139
25.32806,-0.67247,0.79458,-7.9887
25.3381,-0.08469,0.98955,-6.79744
25.34814,0.00359,1.79086,-7.21373
25.35817,-0.2674,-0.80894,-7.16839
25.36821,-0.13662,-0.90426,-7.13248
25.37825,-0.16729,-0.72305,-7.11661
25.38828,-0.23628,-0.60573,-6.67189
25.39832,0.01885,0.03965,-5.35104
25.40836,0.36152,0.31858,-4.27934
25.41839,0.65481,0.34342,-3.35622
25.42843,0.92521,0.14156,-3.07131
25.43847,1.1769,-0.20351,-3.58457
25.4485,1.41318,-0.47809,-4.3353
25.45854,1.56715,-0.54318,-4.85679
25.46858,1.55488,-0.807,-5.16684
25.47861,1.24663,-0.54573,-5.53854
25.48865,1.10223,-0.45041,-6.27685
25.49868,0.69432,-0.92566,-6.59573
25.50872,0.43036,-1.28269,-6.67623
25.51876,0.5785,-1.60232,-6.79923
25.52879,0.96576,-1.81645,-6.98823
25.53883,1.39747,-1.47782,-7.08579
25.54887,1.69584,-0.99404,-6.8118
25.5589,1.83994,-0.72469,-6.46449
25.56894,1.69914,-0.78844,-6.00226
25.57898,1.14203,-0.98761,-5.53644
25.58901,0.42946,-1.33462,-5.58328
25.59905,-0.0829,-1.72936,-5.89363
25.60909,-0.39355,-2.0243,-6.10536
25.61912,-0.41794,-2.03492,-6.45971
25.62916,-0.19947,-1.89456,-6.82527
25.6392,0.06868,-1.73864,-7.34736
25.64923,0.23987,-1.62357,-8.01728
25.65927,0.44053,-1.59663,-8.58875
25.66931,0.52942,-1.64063,-8.96643
25.67934,0.41016,-1.60322,-8.90478
25.68938,0.20126,-1.50057,-8.58351
25.69942,0.03322,-1.57404,-8.33062
25.70945,-0.16565,-1.77425,-8.19969
25.71949,-0.55695,-1.89157,-8.30339
25.72952,-1.05076,-1.91057,-8.73091
25.73956,-1.4464,-1.9616,-9.28696
25.7496,-1.45657,-2.11213,-9.64803
25.75964,-1.21431,-2.25489,-9.48762
25.76967,-0.99704,-2.30322,-9.06819
25.77971,-0.8034,-2.19279,-8.79884
25.78974,-0.65018,-2.0023,-8.90523
25.79978,-0.65227,-1.90908,-9.19269
25.80982,-0.62773,-1.95023,-9.35998
25.81985,-0.60199,-2.03806,-9.351
25.82989,-0.7627,-2.04989,-9.08435
25.83993,-0.98162,-2.11004,-8.96299
25.84996,-1.14323,-2.19788,-9.09063
25.86,-1.23212,-2.19129,-9.24326
25.87004,-1.22269,-2.09373,-9.30237
25.88007,-1.20144,-1.97237,-9.26227
25.89011,-1.11794,-1.92524,-9.17757
25.90015,-1.03699,-1.92389,-9.21813
25.91018,-1.08622,-1.87915,-9.21214
25.92022,-1.12752,-1.84668,-9.2714
25.93026,-1.15026,-1.75525,-9.45156
25.94029,-1.23167,-1.7132,-9.55376
25.95033,-1.40674,-1.69719,-9.42537
25.96037,-1.53004,-1.69988,-9.16545
25.9704,-1.57149,-1.7346,-8.92409
25.98044,-1.56835,-1.77051,-8.74303
25.99047,-1.47184,-1.74672,-8.78896
26.00051,-1.50625,-1.60097,-8.71849
26.01055,-1.66442,-1.50939,-8.39617
26.02058,-1.73131,-1.45119,-8.1349
26.03062,-1.63195,-1.42934,-7.84056
26.04066,-1.4235,-1.48007,-7.64992
26.05069,-1.16687,-1.43667,-7.4515
26.06073,-1.00152,-1.2396,-7.21942
26.07077,-0.91578,-1.02816,-7.21044
26.0808,-0.94152,-0.85668,-6.93361
26.09084,-1.03325,-0.84306,-6.40584
26.10088,-1.05943,-0.90561,-5.92924
26.11091,-0.99045,-0.96486,-5.42287
26.12095,-0.87089,-1.04267,-5.0594
26.13099,-0.62429,-1.14772,-5.01211
26.14102,-0.32307,-1.343,-5.12165
26.15106,-0.20276,-1.52496,-5.25557
26.1611,-0.50084,-1.50221,-5.33204
26.17113,-1.06886,-1.31232,-5.58088
26.18117,-1.5703,-1.32699,-6.21011
26.19121,-1.81331,-1.45163,-6.52779
26.20124,-1.58661,-1.56491,-6.26712
26.21128,-1.06722,-1.54067,-6.06436
26.22131,-0.6415,-1.40046,-6.14203
26.23135,-0.54812,-1.33552,-6.47572
26.24139,-0.71198,-1.45582,-6.79205
26.25142,-1.06407,-1.76946,-6.48844
26.26146,-1.46061,-2.30188,-5.93029
26.2715,-1.7147,-2.66564,-5.74145
26.28153,-1.65484,-2.71787,-6.38025
26.29157,-1.37352,-2.41306,-7.35454
26.30161,-1.19067,-1.69913,-8.25102
26.31164,-1.22897,-0.86416,-9.20196
26.32168,-1.49204,-0.39444,-10.07615
26.33172,-1.92045,-0.48812,-10.24479
26.34175,-2.13413,-1.00721,-9.76685
26.35179,-2.11318,-1.82722,-9.42477
26.36245,-1.40659,-3.58651,-8.12517
26.37249,-1.40659,-3.58651,-8.12517
26.38253,-1.22374,-3.77521,-7.22121
26.39256,-1.2598,-3.05291,-7.34945
26.4026,-1.7129,-2.26596,-8.41517
26.41264,-2.1684,-2.19219,-9.79992
26.42267,-2.38298,-2.32731,-10.9213
26.43271,-2.18815,-2.36876,-12.2426
26.44275,-1.71679,-1.90818,-13.26029
26.45278,-1.23212,-1.29062,-13.64904
26.46282,-0.97609,-0.90531,-13.78746
26.47286,-1.02592,-0.73951,-13.33914
26.48289,-1.37188,-1.02741,-12.77845
26.49293,-1.93152,-1.77365,-12.33597
26.50297,-2.31804,-2.36622,-12.09865
26.513,-2.49042,-2.63482,-12.06408
26.52304,-2.4575,-2.51631,-12.42501
26.53307,-2.30876,-1.96549,-12.94724
26.54311,-2.28556,-1.32339,-13.53966
26.55315,-2.52065,-1.06063,-14.07521
26.56318,-2.79149,-1.43832,-14.08554
26.57322,-2.85913,-1.9215,-13.65578
26.58326,-2.68375,-2.01532,-12.91792
26.59329,-2.46049,-1.99856,-12.14878
26.60333,-2.33195,-1.97581,-11.74236
26.61337,-2.23993,-1.80867,-11.65243
26.6234,-2.05827,-1.74807,-11.69104
26.63344,-1.93272,-1.80224,-11.75538
26.64348,-1.90189,-1.78652,-11.89529
26.65351,-2.15164,-1.83725,-12.19142
26.66355,-2.4786,-1.79864,-12.49205
26.67359,-2.65891,-1.71754,-12.85956
26.68362,-2.56015,-1.69689,-13.00889
26.69366,-2.27958,-1.5061,-12.76424
26.7037,-1.98375,-1.29751,-12.52317
26.71373,-1.82767,-1.23032,-12.14728
26.72377,-1.7976,-1.28075,-11.66709
26.73381,-1.68507,-1.40899,-11.23973
26.74384,-1.58047,-1.47363,-10.87297
26.75388,-1.56012,-1.41572,-10.72722
26.76391,-1.56162,-1.43562,-10.67949
26.77395,-1.56087,-1.52376,-10.55379
26.78399,-1.69869,-1.55369,-10.37004
26.79402,-1.90968,-1.6505,-10.46521
26.80406,-1.94589,-1.63659,-10.46835
26.8141,-1.76153,-1.62716,-10.21845
26.82413,-1.60247,-1.49398,-9.745
26.83417,-1.53244,-1.40585,-9.51246
26.84421,-1.56461,-1.36514,-9.70385
26.85424,-1.6945,-1.32923,-9.98382
26.86428,-1.6713,-1.27282,-10.16533
26.87432,-1.49877,-1.24558,-10.13555
26.88435,-1.37637,-1.18483,-9.73557
26.89439,-1.34838,-1.19575,-9.50318
26.90443,-1.41991,-1.28404,-9.50737
26.91446,-1.50954,-1.35497,-9.58399
26.9245,-1.4247,-1.35183,-9.55466
26.93453,-1.21521,-1.34345,-9.31419
26.9452,-0.88271,-1.22448,-8.95581
26.95523,-0.88271,-1.22448,-8.95581
26.96527,-0.89229,-1.14847,-9.22112
26.97531,-1.00542,-1.08053,-9.61272
26.98534,-0.98806,-1.06512,-9.93294
26.99538,-0.81253,-1.0524,-9.96437
27.00542,-0.65107,-1.02621,-9.68993
27.01545,-0.48587,-1.07589,-9.48583
27.02549,-0.36826,-1.13126,-9.36612
27.03553,-0.34791,-1.23601,-9.34966
27.04556,-0.3708,-1.31487,-9.37016
27.0556,-0.39729,-1.31023,-9.50064
27.06564,-0.52942,-1.31068,-9.78271
27.07567,-0.61576,-1.35706,-10.10233
27.08571,-0.50592,-1.35751,-10.24763
27.09575,-0.30002,-1.26563,-10.24225
27.10578,-0.06105,-1.14922,-10.09784
27.11582,0.164,-1.12707,-9.92262
27.12586,0.42213,-1.18498,-9.67946
27.13589,0.67801,-1.27476,-9.41879
27.14593,0.74939,-1.29257,-9.37614
27.15597,0.66634,-1.33088,-9.65582
27.166,0.59496,-1.42515,-9.95793
27.17604,0.57266,-1.50895,-10.1586
27.18607,0.56533,-1.61624,-10.28549
27.19611,0.57925,-1.67235,-10.37737
27.20615,0.70749,-1.59005,-10.52925
27.21618,0.91264,-1.38834,-10.69984
27.22622,1.16927,-1.26713,-10.69535
27.23626,1.3608,-1.30409,-10.53239
27.24629,1.57329,-1.42231,-10.31063
27.25633,1.83336,-1.50984,-9.99908
27.26637,2.01876,-1.42186,-9.72899
27.2764,2.00544,-1.29646,-9.64235
27.28644,1.84638,-1.20937,-9.69352
27.29648,1.64048,-1.12632,-9.81458
27.30651,1.37801,-1.09999,-10.05385
27.31655,1.11869,-1.16328,-10.24195
27.32659,1.02666,-1.27746,-10.29073
27.33662,1.14997,-1.26279,-10.19152
27.34666,1.37652,-1.18633,-10.00687
27.3567,1.51538,-1.16089,-9.66285
27.36673,1.59065,-1.18543,-9.27454
27.37677,1.78188,-1.09011,-9.07612
27.38681,2.07009,-0.80939,-9.29175
27.39684,2.37639,-0.28431,-9.61018
27.40688,2.48383,0.25468,-9.82924
27.41691,2.13024,0.49425,-10.117
27.42695,1.2604,0.44068,-10.32185
27.43699,0.29119,0.06644,-10.48316
27.44702,-0.55112,-0.38906,-10.43423
27.45706,-1.2595,-0.82301,-10.25182
27.4671,-1.79445,-1.11405,-9.87219
27.47713,-2.13623,-1.22942,-9.60494
27.48717,-2.38223,-1.32504,-9.60958
27.49721,-2.57526,-1.38026,-9.61556
27.50724,-2.7062,-1.42769,-9.57651
27.51728,-2.77757,-1.55877,-9.51486
27.52732,-2.75423,-1.6728,-9.37569
27.53735,-2.64814,-1.6737,-9.2274
27.54739,-2.47516,-1.58122,-9.12266
27.55743,-2.28018,-1.43592,-9.05697
27.56746,-2.14012,-1.30843,-9.01028
27.5775,-2.15688,-1.20653,-9.06699
27.58754,-2.13578,-1.31965,-9.18296
27.59757,-1.89022,-1.4648,-9.11263
27.60761,-1.56296,-1.39627,-9.02045
27.61765,-1.20398,-1.18543,-8.93905
27.62768,-0.82705,-1.02158,-8.81276
27.63772,-0.54214,-0.9276,-8.69484
27.64776,-0.51356,-0.89379,-8.70412
27.65779,-0.56279,-0.91189,-8.88174
27.66783,-0.71721,-0.91264,-9.29624
27.67786,-0.8872,-0.93419,-9.71103
27.6879,-0.90067,-0.96875,-9.87354
27.69794,-0.87314,-0.97683,-9.83942
27.70797,-0.80819,-1.03624,-9.71462
27.71801,-0.7229,-1.04761,-9.59446
27.72805,-0.61292,-1.04507,-9.60374
27.73808,-0.47226,-0.99763,-9.73482
27.74812,-0.58179,-0.77243,-10.11475
27.75816,-0.90336,-0.73921,-10.65943
27.76819,-1.09999,-0.96307,-10.91038
27.77823,-1.0331,-1.18094,-10.6316
27.78827,-0.79024,-1.27162,-10.12463
27.7983,-0.44412,-1.23361,-9.76221
27.80834,-0.08619,-1.10373,-9.57755
27.81838,0.10041,-0.93284,-9.66001
27.82841,0.08514,-0.90007,-9.85992
27.83845,0.1043,-0.98626,-9.93175
27.84849,0.21922,-1.07829,-9.88087
27.85852,0.39385,-1.0132,-9.81114
27.86856,0.64808,-0.85533,-9.77208
27.8786,0.74699,-0.70195,-9.71896
27.88863,0.60588,-0.64,-9.85558
27.89867,0.45265,-0.74759,-9.98592
27.90871,0.44502,-0.86999,-9.88626
27.91874,0.48961,-0.88122,-9.67706
27.92878,0.45789,-0.79847,-9.60688
27.93882,0.34357,-0.72888,-9.73572
27.94885,0.14979,-0.71257,-9.93534
27.95889,0.06644,-0.76255,-10.06163
27.96893,0.16475,-0.81463,-9.98128
27.97896,0.35674,-0.77318,-9.75098
27.989,0.51161,-0.63057,-9.5575
27.99903,0.49979,-0.57117,-9.51531
28.00907,0.27773,-0.64733,-9.59536
28.01911,0.09188,-0.8263,-9.75772
28.02914,0.12644,-0.97534,-9.76625
28.03918,0.3105,-0.93628,-9.58803
28.04922,0.48183,-0.73996,-9.46832
28.05925,0.56563,-0.59167,-9.5798
28.06929,0.55845,-0.57491,-9.66195
28.07933,0.50129,-0.67636,-9.71507
28.08936,0.42707,-0.76959,-9.72061
28.0994,0.34716,-0.75597,-9.75757
28.10944,0.2668,-0.73098,-9.85723
28.11947,0.24511,-0.72888,-9.84825
28.12951,0.36796,-0.7214,-9.70759
28.13955,0.56802,-0.71961,-9.53177
28.14958,0.7012,-0.67112,-9.3932
28.15962,0.69596,-0.60783,-9.38722
28.16966,0.57925,-0.59316,-9.60524
28.17969,0.49201,-0.57581,-9.81727
28.18973,0.50338,-0.62698,-9.83074
28.19977,0.53451,-0.63042,-9.73378
28.2098,0.51011,-0.53944,-9.71747
28.21984,0.48198,-0.53914,-9.71028
28.22988,0.48228,-0.55156,-9.65312
28.23991,0.56847,-0.56728,-9.59671
28.24995,0.56773,-0.52538,-9.53506
28.25999,0.43679,-0.51834,-9.52428
28.27002,0.29748,-0.56802,-9.66135
28.28006,0.22326,-0.63192,-9.75458
28.29009,0.24196,-0.66679,-9.70535
28.30013,0.34013,-0.60334,-9.70699
28.31017,0.42183,-0.48138,-9.71013
28.3202,0.37739,-0.38352,-9.77373
28.33024,0.24541,-0.45535,-9.92606
28.34028,0.23209,-0.58254,-9.92651
28.35031,0.32112,-0.61381,-9.82535
28.36035,0.39055,-0.50578,-9.78914
28.37039,0.39938,-0.42662,-9.77657
28.38042,0.432,-0.46822,-9.70175
28.39046,0.39444,-0.53226,-9.63472
28.4005,0.34566,-0.52867,-9.62379
28.41053,0.27429,-0.48632,-9.7031
28.42057,0.15697,-0.45071,-9.82416
28.43061,0.11597,-0.48333,-9.93923
28.44064,0.21623,-0.48902,-9.93459
28.45068,0.37035,-0.34671,-9.97424
28.46072,0.50712,-0.20276,-10.05804
28.47075,0.61995,-0.12989,-10.04158
28.48079,0.68175,-0.12525,-9.97664
28.49083,0.64209,-0.11896,-9.94626
28.50086,0.47031,-0.14724,-10.03724
28.5109,0.29359,-0.28027,-10.08228
28.52094,0.24196,-0.41764,-10.01105
28.53097,0.30167,-0.42497,-9.95584
28.54101,0.49081,-0.3298,-9.92262
28.55105,0.65362,-0.16071,-9.92531
28.56108,0.65496,-0.01571,-10.05565
28.57112,0.58688,-0.08589,-10.12209
28.58115,0.58104,-0.2065,-9.96302
28.59119,0.62294,-0.28027,-9.79662
28.60123,0.65122,-0.28521,-9.70205
28.61126,0.67322,-0.22745,-9.71866
28.6213,0.67666,-0.19992,-9.79079
28.63134,0.68848,-0.19184,-9.79483
28.64137,0.67142,-0.21727,-9.73662
28.65141,0.59271,-0.23284,-9.7025
28.66145,0.50667,-0.2683,-9.71806
28.67148,0.44143,-0.31843,-9.71268
28.68152,0.45834,-0.4124,-9.6642
28.69156,0.54468,-0.40657,-9.59536
28.70159,0.64224,-0.34237,-9.58234
28.71163,0.73906,-0.22595,-9.56663
28.72167,0.76345,-0.11702,-9.5991
28.7317,0.71257,-0.05941,-9.70325
28.74174,0.56309,-0.05836,-9.87159
28.75178,0.49171,-0.11313,-10.02752
28.76181,0.52792,-0.17089,-10.05924
28.77185,0.62893,-0.12689,-10.05714
28.78189,0.71302,-0.00748,-10.14034
28.79192,0.69163,0.12285,-10.3238
28.80196,0.55456,0.21054,-10.59584
28.812,0.21114,0.22625,-10.9231
28.82203,-0.27069,0.21862,-11.41301
28.83207,-0.72065,0.15622,-12.14279
28.84211,-1.02577,0.10101,-13.34139
28.85214,-1.14458,0.19213,-14.52517
28.86218,-1.14413,0.52912,-14.71342
28.87221,-1.21835,0.87119,-14.52143
28.88225,-1.47483,1.1555,-14.32017
28.89229,-1.73565,1.17346,-14.44287
28.90232,-1.74298,1.00093,-15.05354
28.91236,-1.48785,1.04477,-15.66586
28.9224,-1.15475,1.41976,-15.63952
28.93243,-0.76974,1.91147,-15.04412
28.94247,-0.36586,2.23963,-14.71626
28.95251,0.18824,1.93751,-15.35491
28.96254,0.66589,1.611,-16.21698
28.97258,1.04387,1.84578,-16.17343
28.98262,1.21012,2.128,-15.18388
28.99265,1.04163,2.23199,-13.72401
29.00269,1.08876,1.98509,-12.54562
29.01273,1.20638,1.68282,-12.29857
29.02276,0.95334,1.69165,-12.64887
29.0328,0.73278,1.3195,-13.02954
29.04284,0.80819,0.9101,-12.13441
29.05287,0.9273,0.68429,-10.65629
29.06291,0.40417,0.99404,-10.17685
29.07295,-0.9915,1.37801,-11.21534
29.08298,-3.02163,1.59035,-13.84357
29.09302,-4.7483,0.27025,-16.2083
29.10306,-5.41972,-0.75028,-16.0624
29.11309,-4.96049,-0.80161,-14.76774
29.12313,-4.0052,-0.38023,-13.10586
29.13317,-2.98332,0.06629,-11.09204
29.1432,-2.01502,0.07033,-9.63337
29.15324,-1.19127,-0.1857,-8.87381
29.16327,-0.41764,-0.11762,-8.14567
29.17331,0.14021,0.0187,-7.45405
29.18335,0.43694,0.07572,-6.6668
29.19338,0.60169,0.06315,-5.67156
29.20342,0.71587,-0.07632,-4.38423
29.21346,0.64958,-0.34596,-3.34006
29.22349,0.41031,-0.72021,-3.09271
29.23353,0.05013,-0.91324,-3.93412
29.24357,-0.4323,-0.94526,-5.65959
29.2536,-1.00661,-1.19471,-7.42412
29.26364,-1.34105,-1.59439,-8.61209
29.27368,-1.22314,-1.69135,-9.06505
29.28371,-0.77827,-1.42934,-9.02943
29.29375,-0.15398,-1.00931,-8.50405
29.30379,0.59032,-0.73457,-7.56942
29.31382,1.13919,-0.5972,-6.233
29.32386,1.39702,-0.55396,-4.59642
29.3339,1.633,-0.81657,-3.37882
29.34393,1.97058,-1.13306,-2.55865
29.35397,2.30472,-1.34659,-1.88094
29.36401,2.44732,-1.40076,-1.96055
29.37404,2.51227,-1.36469,-2.90357
29.38408,2.36098,-1.30035,-4.03094
29.39411,2.15658,-1.11241,-5.11297
29.40415,2.12321,-0.9484,-6.25814
29.41419,2.19683,-0.8676,-7.18275
29.42423,2.19488,-0.87493,-7.71876
29.43426,2.09478,-1.08143,-7.79672
29.4443,1.78278,-1.22224,-7.49789
29.45433,1.31367,-1.19351,-7.28361
29.46437,0.9511,-1.13829,-7.31234
29.47441,0.75821,-1.12902,-7.43564
29.48444,0.68699,-1.01484,-7.59141
29.49448,0.57476,-1.07919,-8.00082
29.50452,0.26606,-1.19531,-8.48969
29.51455,-0.01466,-1.24498,-8.95372
29.52459,-0.227,-1.28733,-9.29953
29.53463,-0.38741,-1.34764,-9.4143
29.54466,-0.35898,-1.4033,-9.37704
29.5547,-0.38577,-1.42754,-9.14106
29.56474,-0.60319,-1.52122,-9.01641
29.57477,-0.74175,-1.65619,-9.23503
29.58481,-0.77243,-1.8591,-9.33769
29.59485,-0.86461,-2.09193,-9.20795
29.60488,-1.02891,-2.16511,-8.9805
29.61492,-1.04582,-2.11752,-9.03153
29.62496,-0.9083,-2.01996,-9.26496
29.63499,-0.78275,-1.95756,-9.41625
29.64503,-0.74145,-1.95531,-9.47939
29.65507,-0.77886,-1.98285,-9.39066
29.6651,-0.80774,-2.04061,-9.37869
29.67514,-0.85129,-2.16062,-9.30447
29.68518,-0.94736,-2.27913,-9.18072
29.69521,-1.072,-2.32282,-9.0426
29.70525,-1.04821,-2.27853,-8.99546
29.71529,-0.90471,-2.20416,-8.92708
29.72532,-0.67442,-2.15762,-8.89326
29.73536,-0.51041,-2.09792,-8.80123
29.7454,-0.34506,-2.02205,-8.72282
29.75543,-0.17762,-1.99931,-8.70651
29.76547,-0.19213,-2.10615,-8.59414
29.7755,-0.48513,-2.18082,-8.41517
29.78554,-0.74475,-2.16975,-8.31267
29.79558,-0.85653,-2.0852,-8.22962
29.80561,-0.88855,-2.08236,-8.25251
29.81565,-0.88002,-2.14281,-8.2992
29.82569,-0.90366,-2.21329,-8.11664
29.83572,-1.04657,-2.2293,-7.72265
29.84576,-1.0949,-2.1265,-7.38836
29.8558,-0.97683,-1.94918,-7.05437
29.86583,-0.74983,-1.82408,-6.7319
29.87587,-0.57132,-1.74433,-6.45971
29.88591,-0.37095,-1.83126,-6.20682
29.89594,-0.29898,-1.97596,-5.96455
29.90598,-0.56832,-1.94035,-5.574
29.91602,-0.98132,-1.61309,-5.27921
29.92605,-1.19875,-1.23077,-5.33653
29.93609,-1.11136,-0.78964,-5.01959
29.94613,-0.9083,-0.20171,-4.39935
29.95616,-0.75447,0.08993,-4.1894
29.9662,-0.83184,0.0006,-4.45142
29.97624,-1.31472,-0.29927,-4.64086
29.98627,-1.72876,-0.703,-4.1891
29.99631,-1.63389,-1.30289,-3.45603
30.00634,-1.31576,-1.92404,-3.10558
30.01638,-1.38325,-1.80927,-3.12728
30.02642,-1.86987,-1.22478,-3.66642
30.03645,-2.30322,-0.92012,-4.90976
30.04649,-2.63168,-1.04238,-6.02516
30.05653,-2.76291,-1.37472,-6.81405
30.06656,-2.6414,-1.67789,-7.28032
30.0766,-2.54773,-1.76049,-7.39973
30.08664,-2.29798,-1.56012,-7.61775
30.09667,-1.87556,-1.27551,-8.51243
30.10671,-1.50012,-1.11256,-9.35654
30.11675,-1.2197,-1.19396,-9.51411
30.12678,-1.09505,-1.38505,-9.44587
30.13682,-1.07949,-1.54007,-9.06116
30.14686,-1.07919,-1.4256,-8.66462
30.15689,-0.86491,-1.06512,-8.67793
30.16693,-0.55261,-0.62982,-9.23518
30.17697,-0.44427,-0.42318,-10.15785
30.187,-0.5179,-0.45325,-10.95721
30.19704,-0.71871,-0.64913,-11.14082
30.20708,-1.07993,-0.89648,-10.72034
30.21711,-1.53738,-1.04746,-9.96811
30.22715,-1.81989,-0.9695,-9.28427
30.23719,-1.93661,-0.82346,-8.91795
30.24722,-2.09208,-1.26429,-9.27604
30.25726,-2.36652,-1.79655,-10.23282
30.2673,-2.60579,-1.94334,-11.30856
30.27733,-2.55835,-1.74163,-12.60338
30.28737,-2.43116,-1.04118,-13.40454
30.29741,-2.22257,-0.10026,-13.648
30.30744,-1.95816,0.71003,-13.3978
30.31748,-2.01876,0.98402,-12.99558
30.32752,-2.15837,0.71946,-12.72533
30.33755,-2.16451,0.36407,-12.78055
30.34759,-2.13054,0.09622,-13.26103
30.35762,-2.05707,0.02604,-14.03242
30.36829,-1.93556,0.13378,-14.79931
30.37833,-1.70108,0.56174,-14.89582
30.38836,-1.30035,0.89513,-14.69366
30.3984,-1.23197,1.00497,-14.48387
30.40844,-1.49952,0.88122,-14.29009
30.41847,-1.57583,0.46627,-14.44272
30.42851,-1.50356,0.20261,-14.62363
30.43854,-1.47932,0.03681,-14.72823
30.44858,-1.55189,0.07093,-14.68992
30.45862,-1.6098,0.16729,-14.58578
30.46866,-1.5486,0.31918,-14.3902
30.47869,-1.29466,0.46058,-14.19672
30.48873,-1.06961,0.56593,-13.88757
30.49876,-1.00078,0.47181,-13.38044
30.5088,-1.02846,0.31319,-12.76154
30.51884,-1.17421,0.13467,-12.3653
30.52887,-1.20443,0.02095,-12.38625
30.53891,-1.14473,0.01661,-12.35692
30.54895,-1.10388,0.10729,-12.05645
30.55898,-1.09625,0.17642,-11.68969
30.56902,-1.22598,0.11357,-11.43695
30.57906,-1.35422,-0.09263,-11.44907
30.58909,-1.32594,-0.18645,-11.43306
30.59913,-1.15221,-0.09442,-11.13828
30.60917,-0.93688,-0.08709,-10.68173
30.6192,-0.71078,-0.08993,-10.21531
30.62924,-0.60199,-0.10385,-9.90406
30.63928,-0.65466,-0.20171,-9.97769
30.64931,-0.71931,-0.31304,-10.36016
30.65935,-0.6623,-0.32771,-10.51339
30.66939,-0.54259,-0.26157,-10.363
30.67942,-0.39519,-0.13138,-10.25736
30.68946,-0.3304,-0.07168,-10.21741
30.6995,-0.29179,-0.1643,-10.42615
30.70953,-0.18121,-0.32382,-10.57279
30.71957,0.01736,-0.47091,-10.67036
30.7296,0.23239,-0.52942,-10.70507
30.73964,0.54947,-0.52014,-10.7775
30.74968,0.93613,-0.46268,-10.79276
30.75972,1.21251,-0.41165,-10.74338
30.76975,1.37981,-0.50443,-10.81311
30.77979,1.49533,-0.68773,-11.07977
30.78982,1.73565,-0.67157,-11.29899
30.79986,2.18665,-0.60813,-11.20037
30.8099,2.5805,-0.58,-10.87057
30.81993,2.69497,-0.68474,-10.31736
30.82997,2.70156,-0.95125,-9.86381
30.84001,2.71921,-1.12587,-9.5156
30.85004,2.79747,-1.21162,-9.28202
30.86008,2.77653,-1.35871,-9.17084
30.87012,2.62794,-1.52047,-8.92349
30.88015,2.46079,-1.71305,-8.72881
30.89019,2.31355,-1.67774,-8.7137
30.90023,2.17513,-1.31232,-8.82757
30.91026,1.79475,-0.74639,-8.94564
30.9203,1.3436,-0.48228,-9.26182
30.93034,0.77647,-0.77916,-9.34951
30.941,0.77647,-0.77916,-9.34951
30.95104,0.56473,-0.99225,-9.12969
30.96107,0.34237,-1.04402,-8.78492
30.97111,0.15517,-0.98132,-8.46904
30.98115,0.06225,-0.9071,-8.33631
30.99118,0.11911,-0.92671,-8.34634
31.00122,0.05462,-0.90905,-8.37671
31.01126,-0.18226,-0.88451,-8.64711
31.02129,-0.3084,-1.01155,-9.03647
31.03133,-0.19139,-1.29841,-9.38422
31.04137,-0.49725,-1.31023,-9.23444
31.0514,-0.77033,-1.0518,-8.65205
31.06144,-1.12662,-0.68369,-8.16572
31.07148,-1.69105,-0.53451,-8.43133
31.08151,-2.42368,-1.40614,-10.612
31.09155,-3.08134,-1.50775,-10.68383
31.10159,-2.63078,-1.38819,-9.82491
31.11162,-1.99871,-0.92132,-9.29893
31.12166,-1.66906,-0.27189,-9.04499
31.13169,-1.07844,-0.09218,-9.00684
31.14173,-0.77452,-0.04205,-8.85495
31.15177,-1.05315,0.00973,-8.54131
31.1618,-1.54052,-0.18106,-8.42684
31.17184,-1.89037,-0.77243,-8.66611
31.18188,-2.18725,-1.38968,-9.06654
31.19191,-2.292,-1.64691,-9.46458
31.20195,-2.33509,-1.58825,-9.65626
31.21199,-2.41081,-1.51987,-9.72345
31.22202,-2.38178,-1.46405,-9.81847
31.23206,-2.31415,-1.51897,-9.93205
31.2421,-2.26477,-1.58122,-10.00671
31.25213,-2.20147,-1.49593,-10.11625
31.26217,-2.07817,-1.34659,-10.29462
31.27221,-1.85521,-1.20862,-10.50082
31.28224,-1.66726,-1.06422,-10.57893
31.29228,-1.42694,-0.87688,-10.51743
31.30232,-1.18169,-0.74534,-10.40984
31.31235,-0.99748,-0.76181,-10.33068
31.32239,-0.82376,-0.8447,-10.26798
31.33243,-0.68339,-0.92461,-10.19286
31.34246,-0.52433,-0.9897,-10.26529
31.3525,-0.42168,-0.91982,-10.25317
31.36254,-0.46433,-0.83109,-10.139
31.37257,-0.45654,-0.85967,-10.10248
31.38261,-0.35494,-0.89708,-10.16862
31.39265,-0.19812,-0.89019,-10.21337
31.40268,-0.06838,-0.82316,-10.07286
31.41272,0.05312,-0.72918,-9.92397
31.42275,0.15592,-0.71587,-9.88132
31.43279,0.15098,-0.8049,-9.85543
31.44283,0.06823,-0.89468,-9.88267
31.45286,-0.06749,-0.94855,-9.98771
31.4629,-0.19318,-0.9891,-10.14304
31.47294,-0.2279,-1.00063,-10.35777
31.48297,-0.24361,-0.91279,-10.47209
31.49301,-0.22281,-0.82735,-10.41567
31.50305,-0.19154,-0.82615,-10.25841
31.51308,-0.23852,-0.88077,-10.09485
31.52312,-0.38786,-0.94646,-9.95359
31.53316,-0.60199,-1.06273,-9.96137
31.54319,-0.76121,-1.19306,-9.94881
31.55323,-0.7648,-1.26653,-9.94492
31.56327,-0.70569,-1.22912,-9.92172
31.5733,-0.60065,-1.15655,-9.82161
31.58334,-0.43634,-1.09355,-9.68051
31.59338,-0.31678,-1.06602,-9.66405
31.60341,-0.37035,-0.99,-9.57965
31.61345,-0.45999,-0.97205,-9.55316
31.62349,-0.49186,-1.00422,-9.61571
31.63352,-0.42407,-1.05913,-9.68514
31.64356,-0.31379,-1.0729,-9.72046
31.6536,-0.22281,-0.97698,-9.83299
31.66363,-0.17313,-0.84426,-9.90332
31.67367,-0.15308,-0.7642,-9.85498
31.68371,-0.19079,-0.75148,-9.79273
31.69374,-0.26815,-0.79757,-9.74665
31.70378,-0.37559,-0.86281,-9.80171
31.71382,-0.46642,-0.92102,-9.87608
31.72385,-0.50832,-0.96516,-9.91723
31.73389,-0.49201,-0.98821,-9.87309
31.74393,-0.391,-1.00646,-9.64609
31.75396,-0.29134,-1.06632,-9.36327
31.764,-0.26845,-1.14443,-9.23892
31.77404,-0.32756,-1.15041,-9.29489
31.78407,-0.50039,-1.01125,-9.41909
31.79411,-0.72006,-0.92506,-9.64968
31.80414,-0.75911,-0.97025,-9.90002
31.81418,-0.64269,-1.031,-10.01764
31.82422,-0.50996,-1.02756,-9.87099
31.83425,-0.37484,-1.02621,-9.56289
31.84429,-0.33743,-1.04642,-9.42403
31.85433,-0.30032,-1.00975,-9.52997
31.86436,-0.25588,-0.90396,-9.75009
31.8744,-0.15592,-0.80355,-9.87069
31.88444,-0.02439,-0.75283,-9.83912
31.89447,0.03352,-0.76166,-9.74829
31.90451,0.05761,-0.84635,-9.70535
31.91455,0.0223,-0.81193,-9.63412
31.92458,-0.05806,-0.73337,-9.64803
31.93462,-0.04265,-0.69716,-9.77343
31.94466,-0.05611,-0.7865,-9.81683
31.95469,-0.12061,-0.83558,-9.69083
31.96473,-0.15069,-0.89304,-9.59297
31.97477,-0.01317,-0.98895,-9.46188
31.9848,0.05252,-0.92431,-9.34891
31.99484,-0.14829,-0.83483,-9.29474
32.00488,-0.44547,-0.83124,-9.40697
32.01491,-0.59705,-1.04223,-9.64055
32.02495,-0.88047,-1.24154,-9.78794
32.03499,-1.34823,-1.17974,-10.02512
32.04502,-1.64512,-0.81463,-10.77466
32.05506,-1.84847,0.08006,-11.74012
32.0651,-2.19384,0.95783,-12.91462
32.07513,-2.7246,1.45493,-14.24325
32.08517,-3.32779,1.66756,-15.21351
32.09521,-3.73062,1.4865,-15.77943
32.10524,-3.88788,1.15326,-15.67813
32.11528,-3.94145,0.67382,-15.06058
32.12532,-3.96465,0.19617,-14.04843
32.13535,-3.8813,-0.24361,-13.37805
32.14539,-3.73466,-0.48228,-13.32867
32.15543,-3.90494,-0.4323,-13.69319
32.16546,-4.05413,-0.6795,-14.40995
32.1755,-4.22143,-0.85832,-15.16966
32.18553,-4.42673,-0.77542,-15.59598
32.19557,-4.24088,-0.52119,-15.77135
32.20561,-3.68617,-0.41046,-15.7947
32.21564,-3.08014,-0.62863,-15.60451
32.22568,-2.84566,-0.81104,-14.64249
32.23572,-2.82261,-1.03878,-13.5455
32.24575,-2.40094,-1.36589,-12.69256
32.25579,-2.09493,-1.6101,-11.81539
32.26583,-2.16316,-1.81032,-11.18212
32.27586,-3.16753,-1.77889,-11.38159
32.2859,-4.86592,-2.02983,-12.44446
32.29594,-6.20368,-2.34138,-13.27046
32.30597,-6.45477,-2.38268,-13.35785
32.31601,-5.44441,-1.59304,-12.84729
32.32605,-3.9446,0.0015,-12.39344
32.33608,-2.30128,1.39193,-11.6647
32.34612,-0.69252,2.08415,-10.57953
32.35616,0.2668,1.96983,-9.79722
32.36619,0.8453,1.09295,-9.01582
32.37623,0.83722,0.52687,-8.29381
32.38627,-0.36527,0.36571,-8.25341
32.3963,-1.41737,-0.32486,-8.17051
32.40634,-2.67492,-1.04462,-8.24802
32.41638,-3.00831,-1.91252,-7.75856
32.42641,-2.50284,-2.40976,-7.34421
32.43645,-1.96639,-2.47037,-7.66818
32.44649,-1.16478,-2.35021,-7.81243
32.45652,-0.26501,-1.91895,-6.88303
32.46656,0.67487,-1.39253,-5.90545
32.4766,1.81017,-0.92895,-5.48826
32.48663,2.22047,-0.18944,-5.67441
32.49667,1.50101,0.56518,-6.26907
32.50671,0.60708,0.67502,-6.4841
32.51674,0.15562,0.09801,-6.04656
32.52678,-0.09876,-0.33384,-5.6578
32.53682,-0.09158,-0.7853,-5.34595
32.54685,-0.08275,-1.21341,-4.73798
32.55689,-0.23448,-1.55848,-4.29221
32.56693,0.05731,-2.05437,-4.40593
32.57696,0.62608,-2.85119,-4.95106
32.587,0.64988,-3.06069,-5.56921
32.59703,-0.29942,-2.02774,-6.7901
32.60707,-1.63165,-0.47136,-8.52515
32.61711,-1.33028,0.4962,-9.63995
32.62715,-0.13767,1.20758,-9.59117
32.63718,1.19082,1.37786,-9.27963
32.64722,2.32567,1.02412,-9.51246
32.65725,2.57062,0.49859,-9.32227
32.66729,1.99392,0.20306,-8.84927
32.67733,1.18977,0.31125,-8.90314
32.68736,0.9291,0.66439,-8.711
32.6974,1.28643,0.9499,-8.0535
32.70744,1.6517,0.77752,-7.57061
32.71747,1.4847,0.66125,-7.2474
32.72751,0.93314,0.61351,-6.74252
32.73755,0.49545,0.36332,-6.54305
32.74758,0.35285,0.10939,-6.81375
32.75762,0.51386,-0.07557,-7.45076
32.76766,0.81208,-0.52583,-7.95309
32.77769,0.85593,-0.88556,-8.30055
32.78773,0.69581,-0.81523,-8.59114
32.79777,0.58448,-0.49425,-8.89326
32.8078,0.71976,0.05222,-9.37854
32.81784,1.05135,0.43051,-9.51276
32.82788,1.29766,0.54229,-9.03407
32.83791,1.47707,0.28192,-8.66462
32.84795,1.63419,-0.22116,-8.43462
32.85799,1.47752,-0.53121,-8.40245
32.86802,1.10462,-0.56129,-8.53862
32.87806,0.85338,-0.58912,-8.56226
32.8881,0.78036,-0.62923,-8.43567
32.89813,0.83468,-0.67367,-8.44345
32.90817,0.91279,-0.81882,-8.70427
32.91821,0.81642,-1.07021,-9.05158
32.92824,0.47285,-1.18797,-9.08225
32.93828,0.34491,-1.30409,-9.29025
32.94831,0.37484,-1.22838,-9.46533
32.95835,0.47794,-1.06497,-9.4553
32.96839,0.66574,-1.0328,-9.5584
32.97842,0.78709,-1.07051,-9.43031
32.98846,0.77647,-1.16089,-9.13104
32.9985,0.64449,-1.27551,-8.82398
33.00853,0.4748,-1.35617,-8.51513
33.01857,0.29075,-1.37233,-8.35666
33.02861,0.26396,-1.41318,-8.38375
33.03864,0.17104,-1.61803,-8.62242
33.04868,-0.00673,-1.8585,-8.92319
33.05872,-0.13243,-2.01981,-9.10994
33.06875,-0.18016,-2.03163,-8.97377
33.07879,-0.1251,-1.95382,-8.67479
33.08883,-0.02723,-1.92135,-8.4858
33.09886,0.07407,-1.86748,-8.53488
33.1089,0.16296,-1.78428,-8.83206
33.11894,0.19947,-1.77784,-8.8988
33.12897,0.11791,-1.80508,-8.68287
33.13901,0.07422,-1.74014,-8.50944
33.14905,0.10385,-1.57553,-8.37237
33.15908,0.15892,-1.46061,-8.37507
33.16912,0.1845,-1.46839,-8.47024
33.17916,0.17582,-1.5694,-8.55538
33.18919,0.05986,-1.67938,-8.40829
33.19923,-0.13198,-1.72353,-8.13774
33.20927,-0.22161,-1.69913,-7.86001
33.2193,-0.13378,-1.65379,-7.68569
33.22934,-0.00239,-1.5887,-7.58513
33.23938,0.01257,-1.52585,-7.41589
33.24941,-0.01706,-1.52451,-7.19981
33.25945,0.04714,-1.45178,-6.94752
33.26948,0.17807,-1.22733,-6.69823
33.27952,0.23733,-0.85234,-6.35017
33.28956,0.36616,-0.5788,-6.02052
33.29959,0.55052,-0.48872,-5.96096
33.30963,0.57147,-0.50173,-6.20951
33.31967,0.49665,-0.61127,-6.58465
33.3297,0.3304,-0.75073,-6.78621
33.33974,-0.00853,-0.9906,-6.43397
33.34978,-0.33833,-1.20069,-5.82
33.35981,-0.55171,-1.1992,-5.34027
33.36985,-0.44816,-1.04941,-5.22654
33.37989,-0.12555,-0.90261,-5.53539
33.38992,0.24241,-0.7841,-6.12048
33.39996,0.47196,-0.86969,-6.87989
33.41,0.24002,-1.08906,-6.92852
33.42003,-0.14664,-1.3819,-6.44893
33.43007,-0.31454,-1.59514,-6.10866
33.44011,-0.31768,-1.57942,-5.97727
33.45014,-0.2484,-1.34883,-6.07693
33.46018,-0.13826,-1.0542,-6.57388
33.47022,-0.12689,-0.71617,-7.42696
33.48025,-0.2897,-0.40657,-8.10587
33.49029,-0.5351,-0.29987,-8.76143
33.50033,-0.81388,-0.27234,-8.87965
33.51036,-0.79652,-0.17448,-8.62167
33.5204,-0.45759,-0.09322,-8.64262
33.53044,0.03576,-0.01661,-9.39649
33.54047,0.17523,0.00509,-10.18927
33.55051,-0.09053,-0.01541,-10.25257
33.56055,-0.50173,-0.2083,-10.20364
33.57058,-0.97998,-0.45699,-10.18463
33.58062,-1.16822,-0.63372,-10.10607
33.59066,-1.02636,-0.76525,-10.33023
33.60069,-0.89124,-0.75971,-10.54466
33.61073,-0.81687,-0.71422,-10.65809
33.62077,-0.83438,-0.71227,-10.73994
33.6308,-0.97818,-0.84321,-10.96544
33.64084,-1.11375,-1.13814,-11.24482
33.65087,-1.11809,-1.39223,-11.36243
33.66091,-1.00616,-1.41273,-11.34283
33.67095,-0.97489,-1.18109,-11.43979
33.68099,-1.24184,-0.88301,-11.86701
33.69102,-1.74208,-0.86999,-12.43444
33.70106,-2.17214,-1.21955,-12.77037
33.71109,-2.20446,-1.71949,-13.17948
33.72113,-2.087,-1.99572,-12.8202
33.73117,-2.02759,-2.26521,-12.2423
33.74121,-2.0638,-2.42997,-11.96697
33.75124,-2.0225,-2.2278,-11.74984
33.76128,-2.05108,-1.88394,-11.79069
33.77131,-2.16989,-1.64197,-12.42576
33.78135,-2.08385,-1.50655,-13.28168
33.79139,-1.88708,-1.22942,-13.89879
33.80142,-1.70617,-0.86805,-14.06399
33.81146,-1.59888,-0.5176,-13.88667
33.8215,-1.49159,-0.25992,-13.57393
33.83153,-1.4247,-0.09442,-12.90056
33.84157,-1.26234,-0.13632,-12.30769
33.85161,-1.24139,-0.36931,-11.71528
33.86164,-1.45597,-0.81163,-11.56414
33.87168,-1.77231,-1.42919,-12.04882
33.88172,-2.12036,-2.05437,-12.10538
33.89175,-2.32716,-2.45032,-11.78635
33.90179,-2.32447,-2.45735,-11.42723
33.91183,-2.22317,-2.14865,-11.43875
33.92186,-1.98794,-1.80283,-11.55023
33.9319,-1.70347,-1.63599,-11.60365
33.94194,-1.55144,-1.53573,-11.62744
33.95197,-1.49937,-1.39702,-11.45685
33.96201,-1.45627,-1.28209,-11.25769
33.97205,-1.42709,-1.12378,-11.14845
33.98208,-1.42231,-0.97743,-11.19035
33.99212,-1.36993,-0.88226,-11.32412
34.00216,-1.33821,-0.908,-11.27474
34.01219,-1.29706,-1.09924,-11.13648
34.02223,-1.28389,-1.34868,-10.83601
34.03226,-1.31382,-1.59618,-10.43214
34.0423,-1.38744,-1.83426,-10.16069
34.05234,-1.39627,-1.96474,-10.05939
34.06237,-1.30454,-1.9619,-10.035
34.07241,-1.18453,-1.84009,-10.09216
34.08245,-1.00317,-1.69719,-10.02692
34.09248,-0.84455,-1.62521,-9.77119
34.10252,-0.71661,-1.61579,-9.52458
34.11256,-0.65571,-1.64093,-9.48253
34.12259,-0.65811,-1.54531,-9.57726
34.13263,-0.67816,-1.49174,-9.92636
34.14267,-0.68938,-1.50386,-10.45428
34.1527,-0.64509,-1.36933,-10.61365
34.16274,-0.6388,-1.12378,-10.35253
34.17278,-0.60558,-1.00706,-10.0531
34.18281,-0.49395,-1.06422,-9.80785
34.19285,-0.42318,-1.20294,-9.69607
34.20289,-0.49799,-1.29332,-9.73871
34.21292,-0.65197,-1.33656,-9.71732
34.22296,-0.74175,-1.39821,-9.74724
34.233,-0.78305,-1.49338,-9.81727
34.24303,-0.66364,-1.60097,-9.82191
34.25307,-0.42961,-1.6939,-9.64968
34.26311,-0.27848,-1.69943,-9.29893
34.27314,-0.25154,-1.65379,-9.20092
34.28318,-0.25693,-1.62866,-9.3121
34.29322,-0.16236,-1.6704,-9.55496
34.30325,0.11552,-1.78652,-9.82461
34.31329,0.39175,-1.85401,-9.91065
34.32333,0.55545,-1.9203,-9.63816
34.33336,0.77168,-2.05467,-9.10784
34.3434,1.04118,-2.27943,-8.74003
