t,ax,ay,az
0.0,0.32531,-5.55694,-8.15764
0.01004,0.3928,-5.24614,-8.32733
0.02008,0.29494,-5.03186,-8.54236
0.03012,0.06105,-5.00882,-8.72342
0.04016,-0.07138,-5.20739,-8.67404
0.0502,-0.01377,-5.41344,-8.4439
0.06024,0.10415,-5.4715,-8.22154
0.07027,0.22685,-5.39937,-8.07564
0.08031,0.30676,-5.42751,-8.01429
0.09035,0.30571,-5.40072,-7.96057
0.10039,0.37634,-5.28355,-7.99753
0.11043,0.43859,-5.07945,-8.20313
0.12047,0.28177,-4.96079,-8.39272
0.13051,0.00539,-5.05221,-8.41861
0.14055,-0.21488,-5.24016,-8.31132
0.15059,-0.36886,-5.3069,-8.15974
0.16063,-0.35838,-4.78032,-7.98691
0.17067,-0.21054,-5.11671,-8.34469
0.18071,-0.30751,-5.83811,-8.90059
0.19075,-0.28566,-5.60902,-8.98304
0.20079,-0.08589,-4.95764,-8.97347
0.21082,0.09517,-4.63323,-8.91825
0.22086,0.08829,-4.6262,-8.86797
0.2309,-0.22924,-5.06643,-8.98858
0.24094,-0.71407,-5.26934,-9.01462
0.25098,-1.02801,-4.98248,-8.8994
0.26102,-1.25711,-4.62395,-8.72761
0.27106,-1.4449,-4.7676,-8.54027
0.2811,-1.66981,-5.12808,-8.38614
0.29114,-1.96489,-5.26904,-8.39108
0.30118,-2.05048,-5.06374,-8.2793
0.31122,-1.88139,-4.77748,-8.35965
0.32126,-1.70587,-4.65552,-8.56675
0.3313,-1.64886,-4.61437,-8.65669
0.34134,-1.68402,-4.62859,-8.53159
0.35137,-1.63808,-4.52354,-8.2992
0.36141,-1.68357,-4.46264,-8.27391
0.37145,-1.7548,-4.56978,-8.38165
0.38149,-1.82408,-4.69712,-8.1747
0.39153,-1.76034,-4.80008,-8.02641
0.40157,-1.57628,-4.96198,-7.9917
0.41161,-1.4247,-4.88103,-7.39958
0.42165,-1.08323,-4.73947,-7.12679
0.43169,-0.7627,-4.37301,-7.23094
0.44173,-0.49964,-4.07478,-7.74105
0.45177,-0.60184,-3.9422,-8.09704
0.46181,-0.66529,-4.28936,-8.20478
0.47185,-0.82824,-4.56514,-10.31108
0.48189,-1.21566,-4.16456,-10.29492
0.49193,-0.94032,-3.94445,-9.45919
0.50197,-0.45176,-4.06775,-8.94893
0.512,-0.28117,-4.18506,-8.57124
0.52204,-0.43185,-4.26123,-8.77774
0.53208,-0.88196,-4.22801,-9.42866
0.54212,-1.1136,-3.99113,-9.94117
0.55216,-1.04297,-3.70578,-10.13077
0.5622,-0.88181,-3.55988,-9.95838
0.57224,-0.75477,-3.63126,-9.76879
0.58228,-0.36347,-3.47623,-10.00297
0.59232,-0.40806,-3.30205,-9.84226
0.60236,-0.47974,-3.25222,-9.78181
0.6124,-0.50503,-3.29741,-9.66449
0.62244,-0.49605,-3.38585,-9.3525
0.63248,-0.6587,-3.7176,-9.05173
0.64251,-0.5354,-3.66148,-9.41924
0.65255,-0.72499,-3.67136,-9.61122
0.66259,-0.94825,-3.56646,-9.50513
0.67263,-1.14323,-3.42715,-9.28995
0.68267,-0.63835,-3.03061,-9.83882
0.69271,-0.27309,-2.74869,-10.33188
0.70275,-0.32561,-3.06757,-10.16009
0.71279,-0.40971,-3.7357,-10.12897
0.72283,-0.76106,-4.09259,-10.01435
0.73287,-0.89064,-3.99278,-9.67796
0.74291,-0.89842,-3.83207,-9.02674
0.75295,-0.81193,-3.70518,-8.81979
0.76299,-0.79562,-3.79885,-9.40083
0.77303,-0.77812,-3.74034,-9.64295
0.78307,-0.59705,-3.81067,-9.37195
0.7931,-0.39145,-3.96629,-9.13478
0.80314,-0.36691,-4.01807,-8.95431
0.81318,-0.29494,-4.04411,-8.83131
0.82322,-0.4754,-4.43885,-9.12445
0.83326,-0.54169,-4.33186,-9.29609
0.8433,-0.31663,-3.87876,-9.22381
0.85334,0.18211,-3.26345,-9.11921
0.86338,0.71497,-2.84596,-8.79151
0.87342,1.09086,-2.75213,-8.81111
0.88346,1.02711,-3.18908,-9.01507
0.8935,0.96112,-3.27497,-9.49047
0.90354,0.20455,-2.65981,-9.71642
0.91358,0.13348,-2.46318,-10.33622
0.92362,0.45699,-2.60773,-10.70358
0.93366,0.94496,-2.84925,-10.9213
0.94369,1.59858,-3.14404,-11.68191
0.95373,2.08909,-3.48596,-12.327
0.96377,2.41291,-3.86798,-12.52961
0.97381,2.59008,-4.38782,-12.2821
0.98385,2.70201,-5.08484,-11.54828
0.99389,2.92796,-5.73875,-10.2391
1.00393,3.32001,-5.97563,-8.53099
1.01397,3.65235,-5.98251,-6.81809
1.02401,3.41189,-5.67471,-5.72543
1.03405,3.23726,-5.19811,-5.45519
1.04409,3.06278,-4.8722,-5.38202
1.05413,1.61339,-4.27709,-4.8107
1.06417,1.24678,-4.1095,-4.75339
1.07421,1.10462,-4.10157,-4.7082
1.08425,1.11031,-3.59998,-4.72062
1.09429,1.00123,-3.15855,-5.00373
1.10432,0.78994,-2.83907,-5.66244
1.11436,0.54274,-2.38328,-6.54455
1.1244,0.71871,-1.69031,-7.79881
1.13444,1.10627,-1.00078,-9.58623
1.14448,1.56252,-0.57566,-11.14785
1.15452,1.83112,-1.05046,-12.7581
1.16456,0.79353,-2.50059,-14.79856
1.1746,-0.41913,-3.57409,-13.45122
1.18464,-1.08562,-3.89716,-13.49432
1.19468,-1.18483,-3.89058,-13.42399
1.20472,-0.96217,-3.54701,-12.75272
1.21476,-0.26426,-2.61522,-11.22192
1.2248,0.66903,-1.95921,-8.90044
1.23484,1.64691,-2.2495,-7.33808
1.24488,2.38762,-3.13371,-7.48787
1.25491,2.04704,-3.94549,-8.76457
1.26495,0.79667,-4.31345,-10.19017
1.27499,-0.68983,-4.23355,-11.0241
1.28503,-2.19593,-4.07164,-11.01677
1.29507,-3.07909,-4.40698,-11.33011
1.30511,-3.33812,-4.6027,-11.71692
1.31515,-3.35862,-4.45546,-11.61487
1.32519,-2.95744,-4.0456,-11.09368
1.33523,-2.34063,-3.33916,-10.11191
1.34527,-1.68088,-2.57197,-8.97032
1.35531,-0.94496,-2.01861,-8.0327
1.36535,-0.55022,-1.91476,-7.70664
1.37539,-0.37903,-2.20446,-8.18937
1.38543,-0.38801,-2.43086,-8.70427
1.39547,-0.55052,-2.52962,-8.97601
1.4055,-0.48288,-2.54848,-9.53117
1.41554,-0.14575,-2.37265,-10.37438
1.42558,0.3928,-2.16122,-10.96155
1.43562,1.04956,-2.13952,-10.91606
1.44566,1.38594,-2.30532,-10.71555
1.4557,1.11914,-2.55686,-10.56232
1.46574,0.42871,-2.76081,-10.42001
1.47578,-0.26022,-2.69707,-10.60946
1.48582,-0.66379,-2.53022,-11.15833
1.49586,-0.63401,-2.33076,-11.91145
1.5059,-0.37634,-1.98674,-12.28674
1.51594,0.05058,-1.57419,-12.26355
1.52598,0.68429,-1.0343,-12.21477
1.53602,1.42171,-0.23508,-12.29213
1.54606,1.98165,0.49231,-12.43414
1.5561,1.93661,0.4549,-12.66937
1.56613,1.35706,-0.12809,-12.97238
1.57617,0.55396,-0.83782,-12.86704
1.58621,-0.20575,-1.73625,-12.33134
1.59625,-0.69641,-2.19608,-11.21205
1.60629,-0.75313,-2.4153,-10.14498
1.61633,-0.44263,-2.45391,-9.55661
1.62637,-0.02993,-2.30936,-9.34113
1.63641,0.2689,-2.03462,-9.41146
1.64645,0.47121,-1.65005,-9.7465
1.65649,0.56877,-1.08068,-9.79827
1.66653,0.47031,-0.46313,-9.23055
1.67657,0.4959,0.19049,-8.38554
1.68661,0.84485,0.40896,-7.77038
1.69665,1.02606,-0.00898,-7.22555
1.70669,1.08368,-0.44397,-6.80986
1.71672,1.10178,-0.80011,-6.65992
1.72676,0.98791,-1.04881,-6.59707
1.7368,0.86461,-1.14503,-6.18692
1.74684,1.03055,-1.13814,-5.39414
1.75688,1.39477,-1.08248,-4.87908
1.76692,1.41452,-0.83707,-5.13018
1.77696,0.96726,-0.58823,-5.94271
1.787,0.30332,-0.53855,-6.53018
1.79704,-0.41225,-0.61995,-6.37456
1.80708,-0.92102,-0.86386,-5.66259
1.81712,-1.0934,-1.39732,-5.00448
1.82716,-0.82735,-2.21269,-4.58355
1.8372,-0.28715,-2.9926,-4.66316
1.84724,0.13557,-3.43164,-5.6557
1.85728,0.03008,-3.42565,-7.12125
1.86732,-0.33145,-2.82905,-7.91433
1.87735,-0.39669,-1.79984,-7.98362
1.88739,0.15338,-1.21356,-7.69422
1.89743,0.83872,-1.10672,-7.07098
1.90747,0.9683,-0.82301,-6.53288
1.91751,0.63401,-0.50308,-7.10434
1.92755,-0.04325,-0.45864,-8.79794
1.93759,-0.53106,-0.65018,-10.69999
1.94763,-0.41061,-0.971,-11.82107
1.95767,0.11687,-1.18483,-11.80042
1.96771,0.64284,-1.02547,-10.93477
1.97775,1.09654,-0.65601,-9.97379
1.98779,1.403,-0.50488,-9.47011
1.99783,1.29062,-0.72799,-9.26347
2.00787,0.98731,-1.176,-9.29459
2.01791,0.89199,-1.67968,-9.76565
2.02795,0.54229,-2.087,-10.15516
2.03798,-0.24675,-2.33225,-10.61035
2.04802,-1.14787,-2.13712,-10.84573
2.05806,-1.92688,-1.85102,-11.05298
2.0681,-2.02534,-1.53558,-11.32562
2.07814,-1.60112,-1.48874,-11.46314
2.08818,-0.87029,-1.69195,-11.7072
2.09822,-0.06704,-1.61773,-11.90951
2.10826,0.70629,-1.19501,-11.98926
2.1183,1.33537,-0.42617,-11.75119
2.12834,1.66472,0.27279,-11.13349
2.13838,1.55189,0.56039,-10.42211
2.14842,1.04223,0.55979,-9.85423
2.15846,0.47899,0.61232,-9.61152
2.1685,-0.02334,0.42288,-9.60539
2.17854,-0.3322,-0.09487,-9.90242
2.18857,-0.3289,-0.66155,-10.55334
2.19861,-0.42946,-1.08368,-11.01512
2.20865,-0.90965,-1.31666,-11.19529
2.21869,-1.61459,-1.3213,-11.26547
2.22873,-2.21254,-1.28554,-11.40912
2.23877,-2.61118,-1.13904,-11.18586
2.24881,-2.54563,-0.92087,-10.71271
2.25885,-2.09567,-0.69522,-10.64761
2.26889,-1.55339,-0.47734,-10.95796
2.27893,-1.25711,-0.28985,-11.31111
2.28897,-1.27551,-0.31813,-12.57824
2.29901,-1.66906,-0.40417,-12.82709
2.30905,-1.96639,-0.40267,-12.52153
2.31909,-1.89247,-0.36332,-12.48412
2.32913,-1.44505,-0.23568,-11.97744
2.33917,-0.97339,0.09562,-11.30542
2.34921,-0.75762,0.5143,-10.83466
2.35924,-0.67965,0.65511,-10.69475
2.36928,-0.7232,0.44353,-10.68652
2.37932,-0.8058,0.11732,-10.69101
2.38936,-0.79757,-0.16984,-10.62098
2.3994,-0.75687,-0.26052,-10.36285
2.40944,-0.72245,-0.2668,-10.09051
2.41948,-0.76704,-0.246,-9.99669
2.42952,-0.90067,-0.2876,-10.00073
2.43956,-1.00257,-0.39609,-10.06343
2.4496,-1.04642,-0.48513,-9.90302
2.45964,-0.96965,-0.55351,-9.50139
2.46968,-0.79727,-0.55336,-9.22905
2.47972,-0.70255,-0.54438,-9.19703
2.48976,-0.67726,-0.60678,-9.58564
2.4998,-0.67277,-0.64419,-10.17895
2.50983,-0.64,-0.55605,-10.48376
2.51987,-0.50533,-0.34671,-10.33771
2.52991,-0.23598,-0.00673,-10.117
2.53995,-0.08589,0.27713,-9.97754
2.54999,-0.02664,0.3717,-9.98457
2.56003,-0.2264,0.18854,-10.22279
2.57007,-0.58119,-0.14754,-10.58506
2.58011,-0.89603,-0.40642,-10.84484
2.59015,-1.11181,-0.49889,-10.84813
2.60019,-1.08772,-0.48049,-10.70403
2.61023,-1.06347,-0.47031,-10.43618
2.62027,-1.08412,-0.55381,-10.16159
2.63031,-1.05988,-0.68773,-9.94207
2.64035,-0.82181,-0.76824,-9.84406
2.65039,-0.5149,-0.73278,-9.79872
2.66043,-0.31199,-0.52268,-9.59102
2.67047,-0.05058,-0.18989,-9.17174
2.68051,0.2463,0.00419,-8.60431
2.69054,0.43036,-0.0615,-8.40305
2.70058,0.41509,-0.19154,-8.62945
2.71062,0.23747,-0.21772,-8.88204
2.72066,0.08963,-0.18301,-8.92932
2.7307,0.06434,-0.22281,-8.90972
2.74074,0.12704,-0.35943,-9.03632
2.75078,0.12345,-0.59227,-9.19897
2.76082,-0.00015,-0.86326,-9.33394
2.77086,-0.09292,-0.9309,-9.38018
2.7809,-0.14979,-0.94631,-9.4348
2.79094,-0.12495,-0.83004,-9.54568
2.80098,-0.08215,-0.63401,-9.55601
2.81102,0.00479,-0.48782,-9.42238
2.82106,0.08425,-0.46014,-9.17937
2.8311,0.0606,-0.58763,-8.96464
2.84114,-0.02304,-0.77737,-8.89057
2.85117,-0.14874,-0.9713,-8.87381
2.86121,-0.29613,-1.04926,-9.01836
2.87125,-0.34955,-1.06886,-9.1035
2.88129,-0.23673,-1.11375,-9.1255
2.89133,-0.10669,-1.20234,-9.20271
2.90137,-0.00554,-1.23107,-9.27738
2.91141,0.06479,-1.14009,-9.28277
2.92145,0.07646,-1.04342,-9.42852
2.93149,0.07392,-0.93808,-9.5575
2.94153,0.02394,-0.85593,-9.56005
2.95157,-0.05432,-0.89034,-9.44198
2.96161,-0.10594,-1.03699,-9.26526
2.97165,-0.18076,-1.20952,-9.12325
2.98169,-0.28491,-1.35991,-9.02375
2.99173,-0.40686,-1.50924,-8.97481
3.00177,-0.5776,-1.70138,-9.06983
3.0118,-0.79712,-1.8356,-9.2087
3.02184,-0.91653,-1.93556,-9.43989
3.03188,-1.07051,-1.88169,-9.77627
3.04192,-1.13051,-1.74388,-10.13301
3.05196,-1.16867,-1.5275,-10.41792
3.062,-1.12019,-1.3635,-10.58432
3.07204,-1.0717,-1.33806,-10.66557
3.08208,-1.04417,-1.39118,-10.58102
3.09212,-1.06093,-1.45837,-10.5912
3.10216,-1.19935,-1.53768,-10.75835
3.1122,-1.3846,-1.6098,-10.93686
3.12224,-1.54546,-1.64093,-11.01946
3.13228,-1.59888,-1.60202,-10.97397
3.14232,-1.54935,-1.51613,-10.79695
3.15236,-1.44056,-1.4645,-10.60482
3.1624,-1.26025,-1.51867,-10.50306
3.17243,-1.13515,-1.58601,-10.4875
3.18247,-1.10807,-1.50057,-10.486
3.19251,-1.14024,-1.33282,-10.41119
3.20255,-1.15341,-1.24543,-10.2409
3.21259,-1.08323,-1.29781,-10.02587
3.22263,-0.91384,-1.4645,-9.79722
3.23267,-0.69387,-1.63045,-9.55017
3.24271,-0.4115,-1.61055,-9.27409
3.25275,-0.18031,-1.35317,-8.80587
3.26279,0.03068,-0.98207,-8.34529
3.27283,0.05821,-0.70644,-8.23082
3.28287,-0.00763,-0.72694,-8.752
3.29291,-0.18465,-0.93643,-9.51785
3.30295,-0.37739,-1.09355,-9.80366
3.31299,-0.40088,-1.05749,-9.72794
3.32303,-0.23882,-0.87373,-9.392
3.33306,-0.10729,-0.83737,-8.79555
3.3431,-0.05731,-1.03579,-8.35576
3.35314,-0.17627,-1.36844,-8.16513
3.36318,-0.40163,-1.66217,-8.45527
3.37322,-0.49994,-1.66996,-8.87635
3.38326,-0.39998,-1.45523,-9.25763
3.3933,-0.2267,-1.14203,-9.46473
3.40334,-0.06449,-0.90441,-9.68619
3.41338,0.0826,-0.82331,-9.92247
3.42342,0.15188,-0.78694,-10.06238
3.43346,-0.02469,-0.92835,-9.97918
3.4435,-0.24256,-1.15894,-9.60449
3.45354,-0.35479,-1.31053,-9.24207
3.46358,-0.43694,-1.4651,-9.07178
3.47361,-0.52104,-1.51388,-9.15812
3.48366,-0.78874,-1.67489,-9.5985
3.49369,-1.15281,-1.89187,-9.87892
3.50373,-1.34644,-2.02804,-9.88536
3.51377,-1.41033,-2.03328,-9.76116
3.52381,-1.24454,-1.94394,-9.66135
3.53385,-0.88585,-1.6927,-9.46248
3.54389,-0.56608,-1.29885,-9.31165
3.55393,-0.50413,-1.12692,-9.34801
3.56397,-0.74879,-1.27536,-9.45171
3.57401,-1.12707,-1.66143,-9.46069
3.58405,-1.48845,-2.07263,-9.38916
3.59409,-1.70123,-2.2935,-9.29459
3.60413,-1.76707,-2.23424,-9.17892
3.61417,-1.61384,-1.96339,-9.23937
3.62421,-1.45388,-1.80583,-9.30132
3.63425,-1.31891,-1.77051,-9.42328
3.64428,-1.27312,-1.80044,-9.518
3.65432,-1.23735,-1.8377,-9.31973
3.66436,-1.06332,-1.80657,-8.9193
3.6744,-0.87807,-1.7774,-8.59728
3.68444,-0.83498,-1.83875,-8.35531
3.69448,-0.89588,-1.89366,-8.18907
3.70452,-1.14622,-2.08864,-8.23965
3.71456,-1.38175,-2.30577,-8.34185
3.7246,-1.44819,-2.40647,-8.41682
3.73464,-1.36649,-2.43505,-8.43133
3.74468,-1.09445,-2.38133,-8.41801
3.75472,-0.85473,-2.22466,-8.22304
3.76476,-0.62234,-2.0445,-7.98257
3.7748,-0.43515,-1.91357,-7.75557
3.78484,-0.33429,-1.89052,-7.5772
3.79488,-0.25124,-1.93137,-7.39195
3.80491,-0.19363,-1.99377,-7.21912
3.81495,-0.10355,-2.0234,-7.02234
3.82499,-0.15697,-2.07083,-6.81869
3.83503,-0.33339,-2.16017,-6.69449
3.84507,-0.52074,-2.25309,-6.74132
3.85511,-0.6593,-2.28721,-6.89665
3.86515,-0.72769,-2.28212,-7.09776
3.87519,-0.79577,-2.3143,-7.30441
3.88523,-0.8037,-2.314,-7.39644
3.89527,-0.70315,-2.17947,-7.27463
3.90531,-0.659,-1.98988,-7.1018
3.91535,-0.70988,-1.86957,-7.11467
3.92539,-0.82346,-1.81032,-7.37369
3.93543,-0.89124,-1.73595,-7.71801
3.94547,-0.90157,-1.66562,-7.87109
3.9555,-0.83543,-1.55833,-7.92196
3.96554,-0.77961,-1.52406,-7.93992
3.97558,-0.8037,-1.54815,-7.89608
3.98562,-0.91025,-1.68223,-7.81138
3.99566,-0.9698,-1.80209,-7.75751
4.0057,-0.97803,-1.82244,-7.69541
4.01574,-1.02532,-1.78069,-7.75257
4.02578,-1.10103,-1.72592,-7.92765
4.03582,-1.15161,-1.6731,-8.04182
4.04586,-1.23331,-1.63509,-8.15106
4.0559,-1.2604,-1.59364,-8.24488
4.06594,-1.23511,-1.48785,-8.24892
4.07598,-1.13919,-1.31696,-8.3001
4.08602,-1.06497,-1.22015,-8.39676
4.09606,-1.1983,-1.35317,-8.64546
4.1061,-1.66502,-1.62162,-8.9193
4.11613,-2.01786,-1.90683,-9.11128
4.12617,-2.21314,-2.06171,-9.21139
4.13621,-2.3339,-2.07727,-9.28756
4.14625,-2.32567,-2.02968,-9.25239
4.15629,-2.20865,-1.96908,-9.25194
4.16633,-2.11288,-1.72622,-8.87007
4.17637,-1.87421,-1.39462,-8.46739
4.18641,-1.81525,-1.26713,-8.3812
4.19645,-1.8597,-1.23571,-8.29456
4.20649,-1.83052,-1.29496,-8.27406
4.21653,-1.72323,-1.30514,-8.36639
4.22657,-1.52226,-1.239,-8.53368
4.23661,-1.38175,-1.13111,-8.80153
4.24665,-1.3231,-0.99823,-9.06624
4.25669,-1.36664,-0.84022,-9.17189
4.26673,-1.42919,-0.74205,-9.16366
4.27676,-1.43113,-0.76255,-9.18386
4.2868,-1.41632,-0.94376,-9.25269
4.29684,-1.48096,-1.19725,-9.29698
4.30688,-1.63389,-1.41138,-9.291
4.31692,-1.7756,-1.57434,-9.35459
4.32696,-1.80508,-1.59544,-9.53117
4.337,-1.74073,-1.45388,-9.80007
4.34704,-1.68013,-1.25037,-10.02018
4.35708,-1.53947,-1.0723,-10.28369
4.36712,-1.47932,-0.87119,-10.5484
4.37716,-1.68133,-0.89019,-10.70313
4.3872,-1.97312,-0.97279,-10.55798
4.39724,-2.14341,-1.14712,-10.32993
4.40728,-2.19084,-1.40031,-10.2834
4.41732,-2.13308,-1.57344,-10.4682
4.42735,-2.00679,-1.60397,-10.58955
4.43739,-1.7346,-1.41288,-10.51937
4.44743,-1.41183,-1.02412,-10.2406
4.45747,-1.07515,-0.69417,-9.98786
4.46751,-0.87822,-0.48094,-9.93519
4.47755,-0.82765,-0.34581,-10.05654
4.48759,-0.92401,-0.29359,-10.28355
4.49763,-1.05614,-0.32307,-10.50995
4.50767,-1.10777,-0.40597,-10.55424
4.51771,-1.0961,-0.45146,-10.5101
4.52775,-1.00437,-0.61127,-10.39951
4.53779,-0.82091,-0.63207,-10.2605
4.54783,-0.86625,-0.61277,-10.25272
4.55787,-0.95125,-0.63626,-10.46386
4.56791,-1.07754,-0.69836,-10.68906
4.57795,-1.17376,-0.74415,-10.71345
4.58798,-0.98357,-0.848,-10.50366
4.59802,-0.56668,-0.89872,-9.94432
4.60806,-0.25528,-0.81163,-9.48089
4.6181,-0.21249,-0.74235,-9.61481
4.62814,-0.4935,-0.72754,-10.02916
4.63818,-1.02517,-0.77108,-10.25571
4.64822,-1.45523,-1.0717,-10.43348
4.65826,-1.66068,-1.48261,-10.20693
4.6683,-1.58765,-1.88259,-9.69218
4.67834,-1.28344,-2.13398,-9.18266
4.68838,-0.93703,-2.14954,-8.79809
4.69842,-0.67127,-1.87541,-8.53787
4.70846,-0.48348,-1.45104,-8.32584
4.7185,-0.22655,-1.01963,-8.08866
4.72854,0.03846,-0.71138,-7.86989
4.73858,0.1019,-0.58224,-8.01055
4.74861,-0.02693,-0.65945,-8.5693
4.75865,-0.27189,-0.83692,-9.21962
4.76869,-0.56922,-1.02292,-9.75203
4.77873,-0.84366,-1.14203,-9.9925
4.78877,-1.02951,-1.20189,-9.93384
4.79881,-1.06916,-1.17555,-9.68529
4.80885,-1.05255,-1.01888,-9.36836
4.81889,-1.07739,-0.81388,-9.44408
4.82893,-1.11555,-0.81567,-9.8071
4.83897,-1.157,-0.90037,-10.16279
4.84901,-1.15191,-1.01574,-10.26514
4.85905,-1.10717,-1.0723,-10.09141
4.86909,-0.96965,-1.03011,-9.90376
4.87913,-0.85114,-0.85129,-9.87713
4.88917,-0.72918,-0.68504,-9.96961
4.89921,-0.63596,-0.61785,-10.21815
4.90924,-0.621,-0.62773,-10.52162
4.91928,-0.72814,-0.5999,-10.67814
4.92932,-0.85503,-0.50787,-10.71525
4.93936,-0.87987,-0.44727,-10.70792
4.9494,-0.82076,-0.45385,-10.70163
4.95944,-0.6623,-0.53914,-10.73784
4.96948,-0.4974,-0.55201,-10.78393
4.97952,-0.42467,-0.50084,-10.78618
4.98956,-0.43949,-0.43051,-10.78752
4.9996,-0.49246,-0.34028,-10.84753
5.00964,-0.49111,-0.16191,-10.84484
5.01968,-0.37469,0.06719,-10.77226
5.02972,-0.1637,0.19752,-10.7781
5.03976,-0.0419,0.2071,-10.93611
5.0498,-0.07751,0.11896,-11.20846
5.05983,-0.19558,0.01018,-11.30332
5.06987,-0.32935,-0.06868,-11.21893
5.07991,-0.36886,-0.1435,-11.1697
5.08995,-0.32277,-0.17897,-11.07139
5.09999,-0.21114,-0.20485,-10.95213
5.11003,-0.11986,-0.19827,-10.84139
5.12007,-0.06809,-0.09442,-10.78289
5.13011,0.00344,0.0395,-10.7549
5.14015,0.022,0.17567,-10.74727
5.15019,-0.01182,0.25289,-10.70388
5.16023,-0.04564,0.2068,-10.72453
5.17027,-0.10086,0.0612,-10.78064
5.18031,-0.11253,-0.06928,-10.80249
5.19035,-0.07362,-0.07826,-10.78872
5.20039,0.00868,0.0214,-10.74323
5.21043,0.06674,0.20231,-10.81147
5.22046,0.12944,0.34671,-10.86698
5.2305,0.15308,0.44801,-10.7751
5.24054,0.11193,0.46388,-10.60871
5.25058,0.06195,0.44757,-10.39817
5.26062,0.05581,0.38547,-10.1803
5.27066,0.07916,0.32561,-10.11535
5.2807,0.11672,0.32307,-10.14947
5.29074,0.16894,0.32112,-10.1179
5.30078,0.18435,0.29105,-9.96018
5.31082,0.11343,0.28686,-9.82371
5.32086,0.06973,0.28311,-9.70998
5.3309,0.03876,0.21653,-9.55122
5.34094,0.02634,0.11881,-9.36776
5.35098,0.03576,0.05986,-9.27888
5.36102,0.06135,0.05776,-9.37943
5.37106,0.1257,0.07676,-9.54149
5.3811,0.14171,0.16191,-9.63831
5.39113,0.11747,0.24675,-9.72435
5.40117,0.07078,0.30496,-9.76191
5.41121,0.0226,0.38636,-9.67557
5.42125,-0.02245,0.287,-9.61018
5.43129,-0.05701,0.11223,-9.69083
5.44133,-0.10564,0.0223,-9.89494
5.45137,-0.17148,0.01451,-10.03979
5.46141,-0.23059,0.04639,-10.05909
5.47145,-0.25408,0.07856,-10.02467
5.48149,-0.23388,0.07676,-9.89763
5.49153,-0.2074,0.05522,-9.85109
5.50157,-0.14201,0.00015,-9.79677
5.51161,-0.1465,-0.04399,-9.72929
5.52165,-0.21293,-0.0395,-9.79647
5.53169,-0.27833,0.0193,-9.89359
5.54172,-0.29673,0.0395,-9.88865
5.55176,-0.29509,0.02783,-9.77897
5.5618,-0.2258,-0.05267,-9.67362
5.57184,-0.1848,-0.12375,-9.56469
5.58188,-0.17373,-0.14889,-9.51022
5.59192,-0.19498,-0.11088,-9.59776
5.60196,-0.21802,-0.00808,-9.76939
5.612,-0.19378,0.13437,-9.8882
5.62204,-0.16999,0.21189,-9.98741
5.63208,-0.11073,0.27294,-10.10308
5.64212,-0.10684,0.26935,-10.1592
5.65216,-0.1462,0.23254,-10.22414
5.6622,-0.26142,0.16879,-10.29192
5.67224,-0.38936,0.06404,-10.34175
5.68228,-0.51849,-0.06943,-10.37273
5.69232,-0.56728,-0.1878,-10.34864
5.70235,-0.56922,-0.24391,-10.20962
5.71239,-0.52837,-0.21862,-9.99265
5.72243,-0.44098,-0.12854,-9.86276
5.73247,-0.35255,-0.03247,-9.85064
5.74251,-0.28401,0.04025,-9.93639
5.75255,-0.2472,0.09113,-9.97185
5.76259,-0.25842,0.10669,-9.88671
5.77263,-0.27114,0.12734,-9.73632
5.78267,-0.2683,0.10998,-9.63083
5.79271,-0.25902,0.05492,-9.52369
5.80275,-0.25034,-0.00299,-9.47565
5.81279,-0.2674,-0.05133,-9.45665
5.82282,-0.27354,-0.04788,-9.45081
5.83286,-0.26606,-0.01601,-9.45321
5.8429,-0.2481,0.03621,-9.48448
5.85294,-0.18854,0.07467,-9.48957
5.86298,-0.14605,0.07093,-9.44243
5.87302,-0.12914,0.02409,-9.37973
5.88306,-0.13662,-0.03696,-9.3513
5.8931,-0.15996,-0.09801,-9.43256
5.90314,-0.16056,-0.17702,-9.54448
5.91318,-0.11762,-0.22057,-9.65088
5.92322,-0.06883,-0.24301,-9.73527
5.93326,-0.06614,-0.27234,-9.91035
5.9433,-0.07886,-0.32995,-10.12867
5.95334,-0.07138,-0.37529,-10.27472
5.96338,-0.04923,-0.38547,-10.25676
5.97342,-0.01601,-0.35988,-10.18718
5.98345,0.02888,-0.31529,-10.1993
5.99349,0.11148,-0.30272,-10.26304
6.00353,0.19588,-0.29898,-10.27307
6.01357,0.29853,-0.31125,-10.21576
6.02361,0.35898,-0.34237,-10.04816
6.03365,0.36751,-0.37484,-9.84092
6.04369,0.38128,-0.42123,-9.64983
6.05373,0.44487,-0.46492,-9.50588
6.06377,0.59496,-0.47929,-9.54987
6.07381,0.72799,-0.45909,-9.76445
6.08385,0.8483,-0.35404,-9.90421
6.09389,0.86027,-0.22431,-9.94058
6.10393,0.87807,-0.05342,-10.06522
6.11397,0.95753,0.12839,-10.3452
6.12401,1.00796,0.28566,-10.6331
6.13405,1.07949,0.3714,-10.77675
6.14408,1.12557,0.35838,-10.77211
6.15412,1.07993,0.26935,-10.6343
6.16416,0.93868,0.11268,-10.37108
6.1742,0.74265,-0.11103,-10.09755
6.18424,0.4769,-0.34117,-9.95674
6.19428,0.08395,-0.56787,-9.84032
6.20432,-0.21638,-0.79966,-9.76969
6.21436,-0.36287,-0.85428,-9.6835
6.2244,-0.14171,-0.65706,-9.7634
6.23444,0.31828,-0.38442,-9.66644
6.24448,0.86954,-0.17193,-9.61287
6.25452,1.28673,0.07138,-9.9729
6.26456,1.43712,0.39699,-10.55439
6.2746,1.39612,0.64479,-10.78348
6.28464,1.14548,0.69282,-10.58492
6.29467,0.70988,0.4938,-10.35612
6.30471,0.52508,0.08948,-10.3021
6.31475,0.65466,-0.1251,-10.17925
6.32479,0.94182,-0.05611,-9.96123
6.33483,1.20204,0.13931,-9.83703
6.34487,1.22598,0.36048,-10.17655
6.35491,1.03489,0.63087,-10.7769
6.36495,0.77647,0.87314,-11.2915
6.37499,0.56802,0.94197,-11.52838
6.38503,0.55231,0.83423,-11.50549
6.39507,0.84934,0.51715,-11.2939
6.40511,1.32848,0.45071,-10.73859
6.41515,1.87735,0.79832,-9.92741
6.42519,2.42518,1.22,-8.90104
6.43523,2.7059,1.53154,-7.77098
6.44526,2.65816,1.58287,-6.83829
6.4553,2.40872,1.30918,-6.40075
6.46534,1.98629,0.91803,-6.55802
6.47538,1.42141,0.58733,-7.04284
6.48542,0.76106,0.35748,-7.5754
6.49546,-0.07691,0.12195,-7.81647
6.5055,-0.63117,-0.34626,-8.15136
6.51554,-0.46822,-0.79293,-8.64965
6.52558,0.08993,-0.7645,-8.88368
6.53562,0.75612,-0.09711,-8.90059
6.54566,1.20847,0.88077,-9.0016
6.5557,1.18408,1.81675,-9.09662
6.56574,0.68953,2.36712,-9.3727
6.57578,-0.26501,2.47471,-10.46176
6.58581,-1.17825,2.62659,-10.79875
6.59585,-1.77321,2.39256,-11.07707
6.60589,-2.23993,1.80164,-11.05298
6.61593,-2.55746,1.08712,-11.22596
6.62597,-2.76695,0.34043,-11.71124
6.63601,-2.93784,-0.18286,-12.04478
6.64605,-3.11082,-0.25932,-11.96577
6.65609,-3.24729,-0.01392,-11.5197
6.66613,-3.28425,0.34656,-10.74099
6.67617,-3.29562,0.67472,-9.7655
6.68621,-3.26898,0.86116,-8.92244
6.69625,-3.21781,0.91294,-8.32733
6.70629,-3.20404,0.71931,-8.1138
6.71633,-3.21466,0.3099,-8.14193
6.72637,-3.19746,-0.10684,-8.38584
6.73641,-3.17396,-0.44562,-8.5684
6.74644,-3.04887,-0.57566,-8.56002
6.75648,-2.93574,-0.58404,-8.29366
6.76652,-2.87663,-0.57536,-8.02162
6.77656,-2.88426,-0.58763,-7.9263
6.7866,-2.85673,-0.69447,-8.10407
6.79664,-2.90177,-0.88436,-8.49418
6.80668,-3.04797,-0.9695,-9.07911
6.81672,-3.21601,-0.99689,-9.65342
6.82676,-3.34021,-0.886,-10.00223
6.8368,-3.30864,-0.76076,-10.02886
6.84684,-3.15107,-0.69686,-9.67377
6.85688,-2.8702,-0.63626,-9.23518
6.86692,-2.56703,-0.5149,-8.98155
6.87696,-2.23484,-0.32022,-9.07687
6.887,-1.95816,-0.16071,-9.39724
6.89703,-1.79954,-0.05177,-9.63053
6.90707,-1.90982,-0.07392,-9.49989
6.91711,-2.04525,0.25274,-8.65414
6.92715,-2.23409,0.58643,-7.5362
6.93719,-2.44059,0.90246,-6.69509
6.94723,-2.61207,0.94406,-6.73863
6.95727,-2.86376,0.5788,-7.71846
6.96731,-2.99096,-0.16296,-9.35325
6.97735,-3.01819,-0.85428,-11.12556
6.98739,-3.0541,-1.24439,-12.26729
6.99743,-2.9709,-1.27985,-12.51404
7.00747,-2.80077,-1.00916,-12.22734
7.01751,-2.60564,-0.6183,-11.87479
7.02755,-2.5374,-0.24451,-11.57851
7.03759,-2.65352,-0.03696,-11.49636
7.04762,-2.63901,-0.06898,-11.41271
7.05766,-2.41395,-0.19034,-10.99612
7.0677,-2.02864,-0.33683,-10.32679
7.07774,-1.55548,-0.45385,-9.69921
7.08778,-1.16149,-0.52328,-9.17952
7.09782,-0.90501,-0.58628,-8.85002
7.10786,-0.77168,-0.65137,-8.81784
7.1179,-0.77527,-0.69192,-8.84418
7.12794,-0.87119,-0.66619,-8.72238
7.13798,-0.9918,-0.58179,-8.4243
7.14802,-0.96531,-0.54079,-8.09225
7.15806,-0.8049,-0.5179,-7.8446
7.1681,-0.5568,-0.50398,-7.81797
7.17814,-0.27638,-0.46941,-8.0535
7.18818,-0.05267,-0.35928,-8.24743
7.19821,0.13422,-0.07991,-8.38898
7.20825,0.3729,0.20022,-8.58381
7.21829,0.61202,0.46822,-8.81859
7.22833,0.79742,0.66679,-9.25868
7.23837,0.87628,0.75926,-9.87234
7.24841,0.77542,0.83169,-10.62367
7.25845,0.51415,0.83812,-11.29973
7.26849,0.18106,0.75088,-11.77528
7.27853,-0.07123,0.5794,-12.08937
7.28857,-0.19393,0.47884,-12.18185
7.29861,-0.13288,0.44502,-11.96951
7.30865,0.07377,0.473,-11.52703
7.31869,0.21653,0.47196,-10.99582
7.32873,0.32606,0.4739,-10.55214
7.33876,0.4528,0.45984,-10.23012
7.3488,0.50982,0.40537,-10.04083
7.35884,0.46343,0.32337,-9.92621
7.36888,0.34162,0.10789,-9.77927
7.37892,0.17059,-0.15577,-9.58025
7.38896,-0.0401,-0.38696,-9.40712
7.399,-0.19662,-0.56488,-9.30492
7.40904,-0.29613,-0.64135,-9.23309
7.41908,-0.36975,-0.66948,-9.19628
7.42912,-0.43515,-0.67023,-9.17712
7.43916,-0.57236,-0.67861,-9.20107
7.4492,-0.77991,-0.70764,-9.25688
7.45924,-0.91997,-0.80774,-9.27753
7.46928,-0.91593,-0.93568,-9.1044
7.47932,-0.72245,-0.99584,-8.84882
7.48935,-0.41569,-0.96995,-8.56196
7.49939,-0.12016,-0.92446,-8.31372
7.50943,0.03935,-0.82256,-8.07549
7.51947,0.11537,-0.67801,-8.04571
7.52951,0.07018,-0.50667,-8.3619
7.53955,-0.02095,-0.31993,-8.90015
7.54959,-0.00673,-0.19393,-9.48179
7.55963,0.05821,-0.09263,-9.972
7.56967,0.19438,-0.02604,-10.24629
7.57971,0.32247,-0.02349,-10.43348
7.58975,0.36467,-0.00703,-10.54137
7.59979,0.20201,0.00374,-10.61409
7.60983,-0.08918,-0.07227,-10.72812
7.61987,-0.42826,-0.20291,-10.88359
7.62991,-0.6406,-0.38726,-10.9611
7.63994,-0.68594,-0.6002,-10.80339
7.64998,-0.63027,-0.68325,-10.48885
7.66002,-0.49186,-0.70464,-10.18987
7.67006,-0.33609,-0.63805,-10.00238
7.6801,-0.21817,-0.49725,-10.0528
7.69014,-0.16804,-0.38247,-10.27651
7.70018,-0.13976,-0.24526,-10.40311
7.71022,-0.15398,-0.11881,-10.29567
7.72026,-0.08305,-0.00015,-10.15635
7.7303,0.02783,0.1019,-10.06433
7.74034,0.08275,0.17687,-10.07854
7.75038,0.07213,0.19827,-10.19646
7.76042,-0.0226,0.16969,-10.31287
7.77046,-0.13542,0.13153,-10.38919
7.78049,-0.19303,0.05926,-10.35058
7.79053,-0.26665,-0.08006,-10.16638
7.80057,-0.3705,-0.27159,-9.87728
7.81061,-0.48079,-0.53286,-9.62589
7.82065,-0.53899,-0.77737,-9.40338
7.83069,-0.63087,-1.05195,-9.24835
7.84073,-0.7832,-1.28614,-9.15243
7.85077,-0.9276,-1.40151,-9.20301
7.86081,-1.06707,-1.41303,-9.31329
7.87085,-1.18244,-1.37652,-9.3715
7.88089,-1.26294,-1.32549,-9.38048
7.89093,-1.27102,-1.30843,-9.34771
7.90097,-1.15176,-1.24648,-9.32362
7.91101,-0.96935,-1.22089,-9.32586
7.92104,-0.72335,-1.19905,-9.42373
7.93108,-0.59002,-1.12722,-9.57277
7.94112,-0.55635,-0.99704,-9.72719
7.95116,-0.56877,-0.78739,-9.87803
7.9612,-0.62339,-0.55994,-10.03455
7.97124,-0.66469,-0.40387,-10.18344
7.98128,-0.70434,-0.31678,-10.35777
7.99132,-0.69866,-0.29509,-10.49947
8.00136,-0.62294,-0.3316,-10.54182
8.0114,-0.4938,-0.35285,-10.5276
8.02144,-0.3521,-0.40477,-10.41732
8.03148,-0.17642,-0.41195,-10.19077
8.04152,-0.0416,-0.35015,-9.90391
8.05156,0.10549,-0.27324,-9.5982
8.0616,0.21323,-0.21922,-9.28756
8.07164,0.33369,-0.22191,-9.15318
8.08167,0.45131,-0.29494,-9.11951
8.09171,0.43485,-0.33399,-9.26676
8.10175,0.27219,-0.46852,-9.54718
8.11179,0.09861,-0.53735,-9.67183
8.12183,-0.09038,-0.62623,-9.79618
8.13187,-0.27877,-0.67516,-9.79438
8.14191,-0.38532,-0.66439,-9.786
8.15195,-0.43978,-0.62833,-9.75024
8.16199,-0.45654,-0.61561,-9.66225
8.17203,-0.41824,-0.60319,-9.62619
8.18207,-0.33549,-0.61546,-9.61721
8.19211,-0.27429,-0.64105,-9.63083
8.20215,-0.24122,-0.62085,-9.6841
8.21219,-0.24316,-0.60349,-9.80111
8.22222,-0.27234,-0.59107,-9.92292
8.23226,-0.30107,-0.54393,-9.9925
8.2423,-0.2897,-0.49216,-9.9102
8.25234,-0.24077,-0.42961,-9.73617
8.26238,-0.14889,-0.34013,-9.52443
8.27242,-0.04459,-0.25528,-9.34217
8.28246,0.04998,-0.19184,-9.32392
8.2925,0.1444,-0.08065,-9.46039
8.30254,0.18031,0.06404,-9.67811
8.31258,0.20994,0.1034,-9.82491
8.32262,0.27848,0.0609,-9.83628
8.33266,0.31888,0.00928,-9.80336
8.3427,0.35823,-0.05013,-9.74141
8.35273,0.32845,-0.16774,-9.60195
8.36277,0.19378,-0.33773,-9.43196
8.37281,-0.03472,-0.62115,-9.30596
8.38285,-0.2487,-0.93434,-9.2711
8.39289,-0.37335,-1.24035,-9.23743
8.40293,-0.42228,-1.45912,-9.23863
8.41297,-0.42976,-1.5474,-9.29085
8.42301,-0.43574,-1.37008,-9.3917
8.43305,-0.39175,-1.11824,-9.6009
8.44309,-0.3319,-0.91473,-9.76894
8.45313,-0.2267,-0.80325,-9.85004
8.46317,-0.16221,-0.76315,-9.83059
8.47321,-0.14904,-0.74175,-9.79947
8.48325,-0.1631,-0.66813,-9.83987
8.49328,-0.15203,-0.62189,-9.97873
8.50332,-0.12929,-0.65526,-10.1378
8.51336,-0.11223,-0.67053,-10.2409
8.5234,-0.11208,-0.65796,-10.24823
8.53344,-0.15892,-0.62549,-10.27666
8.54348,-0.19722,-0.52927,-10.33397
8.55352,-0.20276,-0.50413,-10.42435
8.56356,-0.14186,-0.4739,-10.45338
8.5736,-0.07946,-0.46029,-10.3422
8.58364,-0.05986,-0.46612,-10.18733
8.59368,0.00389,-0.47285,-9.99415
8.60372,0.08679,-0.44816,-9.80022
8.61376,0.15712,-0.34701,-9.67916
8.6238,0.21638,-0.30646,-9.64759
8.63383,0.25857,-0.32965,-9.60868
8.64388,0.23942,-0.35015,-9.53401
8.65391,0.14859,-0.39624,-9.49331
8.66395,0.04115,-0.43978,-9.61586
8.67399,-0.09023,-0.45595,-9.73707
8.68403,-0.1634,-0.50592,-9.8255
8.69407,-0.17223,-0.54648,-9.8888
8.70411,-0.2478,-0.60738,-9.86246
8.71415,-0.30511,-0.71632,-9.80081
8.72419,-0.3512,-0.79637,-9.69891
8.73423,-0.36646,-0.81119,-9.64684
8.74427,-0.29823,-0.60977,-9.72046
8.75431,-0.1869,-0.19243,-9.88297
8.76435,-0.16131,0.18585,-10.19376
8.77438,-0.30496,0.33788,-10.5716
8.78443,-0.57042,0.17089,-10.97726
8.79446,-0.96441,-0.15667,-11.35271
8.8045,-1.42051,-0.53032,-11.71273
8.81454,-1.71619,-0.79727,-12.09311
8.82458,-1.67011,-0.73771,-12.63151
8.83462,-1.35183,-0.34536,-13.16182
8.84466,-1.11675,0.01107,-13.7707
8.8547,-1.12752,0.07766,-14.32421
8.86474,-1.36709,-0.29449,-14.91528
8.87478,-1.60037,-0.72185,-14.9675
8.88482,-1.64586,-1.02666,-14.46397
8.89486,-1.57718,-1.01335,-13.71848
8.9049,-1.41572,-0.87628,-13.32732
8.91493,-1.3834,-0.7241,-13.46409
8.92497,-1.78592,-0.65511,-14.06953
8.93501,-2.3936,-0.64165,-14.94565
8.94505,-2.74256,-0.78485,-15.67753
8.95509,-2.88052,-0.85458,-15.85261
8.96513,-2.82217,-0.94691,-15.65329
8.97517,-2.70769,-0.77138,-15.27276
8.98521,-2.53531,-0.70195,-14.7185
8.99525,-2.54878,-0.62174,-13.78207
9.00529,-2.39465,-0.63207,-12.37757
9.01533,-1.9007,-0.48557,-10.72468
9.02537,-1.33043,-0.42781,-9.21483
9.03541,-0.84186,-0.48932,-8.23531
9.04545,-0.58867,-0.71871,-8.12787
9.05548,-0.45325,-0.9921,-8.78073
9.06552,-0.41524,-1.13051,-9.21708
9.07556,-0.35045,-1.12019,-9.31165
9.0856,-0.01422,-1.00347,-9.05502
9.09564,0.36736,-0.77363,-8.64427
9.10568,0.71242,-0.51236,-8.62227
9.11572,1.01888,-0.24077,-8.97227
9.12576,1.26309,0.01167,-8.93905
9.1358,1.46435,0.06285,-8.74138
9.14584,1.58556,0.03965,-8.37671
9.15588,1.75136,-0.06913,-8.05649
9.16592,1.87017,-0.21518,-7.85253
9.17596,1.82992,-0.28925,-7.63002
9.186,1.72278,-0.45774,-7.40557
9.19603,1.4232,-0.60903,-7.22795
9.20607,1.10732,-0.70883,-7.1633
9.21611,0.94975,-0.8857,-7.28436
9.22615,0.7832,-0.97579,-7.30995
9.23619,0.68818,-1.07215,-7.43504
9.24623,0.69776,-1.14473,-7.64394
9.25627,0.64314,-1.11001,-7.82395
9.26631,0.46343,-1.01724,-8.10407
9.27635,0.2484,-0.84725,-8.31806
9.28639,-0.01661,-0.65541,-8.39946
9.29643,-0.22685,-0.56967,-8.28139
9.30647,-0.2469,-0.50862,-8.16468
9.31651,-0.14844,-0.44278,-8.36055
9.32654,-0.09816,-0.42093,-8.55957
9.33658,-0.15877,-0.44173,-8.72701
9.34662,-0.25199,-0.48378,-8.86588
9.35666,-0.26142,-0.5788,-8.79285
9.3667,-0.2267,-0.72574,-8.47757
9.37674,-0.19438,-1.05614,-8.12831
9.38678,-0.23463,-1.39522,-7.89593
9.39682,-0.2704,-1.69061,-7.86839
9.40686,-0.25543,-1.82064,-7.92002
9.4169,-0.19079,-1.69509,-7.83787
9.42694,0.03202,-1.52211,-7.89623
9.43698,0.30092,-1.34449,-8.04093
9.44702,0.53795,-1.14937,-8.04242
9.45706,0.74205,-1.0958,-7.9486
9.46709,0.81867,-1.10163,-7.85014
9.47713,0.89783,-1.16583,-7.75856
9.48717,0.94795,-1.29826,-7.73163
9.49721,1.00197,-1.40181,-7.87752
9.50725,0.91189,-1.4253,-7.89279
9.51729,0.69896,-1.54621,-7.87887
9.52733,0.48946,-1.7361,-8.0915
9.53737,0.32561,-1.91192,-8.22872
9.54741,0.2059,-2.13922,-8.24219
9.55745,0.1637,-2.35619,-8.13789
9.56749,0.22116,-2.37415,-7.97045
9.57753,0.34222,-2.22152,-7.86929
9.58757,0.51864,-2.01547,-7.87513
9.5976,0.62698,-1.80523,-8.03449
9.60764,0.67367,-1.61459,-8.18323
9.61768,0.70928,-1.51837,-8.30938
9.62772,0.66693,-1.47034,-8.40155
9.63776,0.56339,-1.49009,-8.43088
9.6478,0.42811,-1.6107,-8.44285
9.65784,0.31214,-1.74178,-8.48116
9.66788,0.1863,-1.84503,-8.47832
9.67792,0.07392,-1.94903,-8.48595
9.68796,-0.06898,-1.94409,-8.49538
9.698,-0.15233,-1.90339,-8.50465
9.70804,-0.15996,-1.93062,-8.53817
9.71808,-0.16176,-1.93706,-8.63693
9.72812,-0.14201,-1.83695,-8.74856
9.73815,-0.13004,-1.72248,-8.77206
9.74819,-0.1637,-1.69614,-8.66013
9.75823,-0.17687,-1.72263,-8.49957
9.76827,-0.17163,-1.80358,-8.32509
9.77831,-0.20785,-1.88977,-8.18129
9.78835,-0.25857,-1.96459,-8.01758
9.79839,-0.24166,-1.98449,-7.93199
9.80843,-0.2065,-1.98524,-7.96596
9.81847,-0.2463,-1.98928,-8.03434
9.82851,-0.28835,-2.02549,-8.16468
9.83855,-0.27204,-2.05004,-8.33796
9.84859,-0.28132,-1.98629,-8.45348
9.85863,-0.331,-1.81495,-8.4424
9.86867,-0.33399,-1.61145,-8.35053
9.8787,-0.29329,-1.4455,-8.24339
9.88874,-0.30197,-1.41153,-8.12382
9.89878,-0.29718,-1.47288,-8.13654
9.90882,-0.22565,-1.54665,-8.17964
9.91886,-0.15039,-1.56715,-8.22244
9.9289,-0.15951,-1.56102,-8.22498
9.93894,-0.1661,-1.55219,-8.22558
9.94898,-0.20216,-1.60726,-8.29381
9.95902,-0.1028,-1.68417,-8.49972
9.96906,-0.01047,-1.66128,-8.60835
9.9791,0.05896,-1.57643,-8.5283
9.98914,0.11043,-1.44355,-8.35936
9.99918,0.21548,-1.32714,-8.16737
10.00922,0.14021,-1.25396,-8.16946
10.01925,-0.13183,-1.39343,-8.42385
10.02929,-0.45879,-1.67594,-8.94923
10.03933,-0.5378,-1.81047,-9.45889
10.04937,-0.40133,-1.77725,-9.6193
10.05941,-0.15128,-1.59918,-9.44453
10.06945,0.01616,-1.41004,-9.105
10.07949,0.02334,-1.28973,-8.90074
10.08953,-0.2047,-1.36769,-8.93232
10.09957,-0.62788,-1.52615,-9.09482
10.10961,-0.72679,-1.68986,-9.44752
10.11965,-0.53735,-1.72727,-9.86321
10.12969,-0.28566,-1.6104,-10.12119
10.13973,-0.07287,-1.42275,-10.23671
10.14976,-0.00643,-1.25067,-10.27891
10.1598,-0.05791,-1.08008,-10.30629
10.16984,-0.17403,-0.98866,-10.39532
10.17988,-0.27773,-0.99509,-10.5716
10.18992,-0.20321,-0.96501,-10.66602
10.19996,-0.13063,-0.91294,-10.57698
10.21,-0.07796,-0.98028,-10.42959
10.22004,-0.04788,-1.16657,-10.3235
10.23008,0.0823,-1.3002,-10.18778
10.24012,0.2047,-1.41467,-10.07271
10.25016,0.27354,-1.48351,-9.99744
10.2602,0.24541,-1.45657,-9.98068
10.27024,0.20455,-1.39717,-10.11206
10.28028,0.12031,-1.31083,-10.30375
10.29031,-0.01137,-1.31472,-10.51683
10.30035,-0.07572,-1.36634,-10.58087
10.31039,-0.05761,-1.41722,-10.49528
10.32043,-0.01422,-1.46435,-10.32978
10.33047,-0.0009,-1.48755,-10.23761
10.34051,-0.0395,-1.49293,-10.21935
10.35055,-0.09891,-1.45837,-10.23551
10.36059,-0.13527,-1.52122,-10.23357
10.37063,-0.13482,-1.63584,-10.1161
10.38067,-0.03277,-1.71245,-9.87758
10.39071,0.11268,-1.72906,-9.65417
10.40075,0.23284,-1.63479,-9.5572
10.41079,0.34312,-1.52451,-9.68305
10.42082,0.38307,-1.38968,-10.00881
10.43086,0.36721,-1.2378,-10.32694
10.4409,0.32172,-1.12213,-10.49184
10.45094,0.24406,-1.07111,-10.56606
10.46098,0.18765,-1.11899,-10.5894
10.47102,0.15547,-1.22643,-10.6735
10.48106,0.12091,-1.28838,-10.76643
10.4911,0.05522,-1.22643,-10.74503
10.50114,0.01122,-1.13231,-10.60826
10.51118,-0.03726,-1.11495,-10.49349
10.52122,-0.09158,-1.17735,-10.51863
10.53126,-0.17148,-1.27267,-10.62771
10.5413,-0.23673,-1.35183,-10.67455
10.55134,-0.30601,-1.37038,-10.70073
10.56137,-0.32037,-1.34345,-10.75715
10.57141,-0.25184,-1.29616,-10.74338
10.58145,-0.18151,-1.21655,-10.57145
10.59149,-0.14724,-1.12183,-10.40266
10.60153,-0.08948,-1.06886,-10.18538
10.61157,-0.04848,-1.09924,-10.10892
10.62161,-0.00434,-1.15326,-10.19152
10.63165,-0.00359,-1.2161,-10.24868
10.64169,-0.07572,-1.2595,-10.24584
10.65173,-0.15832,-1.26997,-10.16698
10.66177,-0.16281,-1.29407,-10.0766
10.67181,-0.09996,-1.29152,-9.96452
10.68185,-0.06315,-1.29661,-9.9304
10.69188,-0.06809,-1.30304,-10.02258
10.70192,-0.13632,-1.31352,-10.28399
10.71196,-0.23598,-1.36754,-10.51399
10.722,-0.26202,-1.42231,-10.64432
10.73204,-0.21428,-1.43652,-10.65629
10.74208,-0.1046,-1.39028,-10.62457
10.75212,0.05133,-1.28269,-10.58282
10.76216,0.17852,-1.22299,-10.62083
10.7722,0.21787,-1.18154,-10.69759
10.78224,0.18106,-1.11375,-10.75475
10.79228,0.063,-1.07993,-10.67754
10.80232,-0.04744,-1.116,-10.52596
10.81236,-0.08739,-1.23182,-10.40415
10.8224,-0.09517,-1.33537,-10.31931
10.83243,-0.05611,-1.45448,-10.30569
10.84247,0.0401,-1.48994,-10.31228
10.85251,0.12989,-1.42709,-10.31632
10.86255,0.15921,-1.35452,-10.31033
10.87259,0.12151,-1.26399,-10.23776
10.88263,0.1851,-1.18767,-10.11131
10.89267,0.34716,-1.12707,-9.89943
10.90271,0.47974,-1.07993,-9.73991
10.91275,0.62758,-1.06677,-9.72181
10.92279,0.7033,-1.09639,-9.84152
10.93283,0.75672,-1.13769,-9.95763
10.94287,0.845,-1.09759,-10.00447
10.95291,0.96905,-1.00751,-9.96123
10.96295,1.11794,-0.9505,-9.87518
10.97298,1.26369,-0.90426,-9.77448
10.98302,1.36918,-0.91084,-9.7224
10.99306,1.43577,-0.98641,-9.767
11.0031,1.41288,-1.09774,-9.79722
11.01314,1.32773,-1.18453,-9.81623
11.02318,1.20698,-1.26189,-9.87668
11.03322,1.10343,-1.29945,-9.98681
11.04326,1.0343,-1.3228,-10.21456
11.0533,0.9484,-1.35078,-10.35298
11.06334,0.86072,-1.3415,-10.31317
11.07338,0.77288,-1.3017,-10.19765
11.08342,0.68639,-1.28808,-10.20124
11.09346,0.55291,-1.35257,-10.23791
11.10349,0.38831,-1.447,-10.15695
11.11353,0.27444,-1.5676,-10.01899
11.12357,0.30795,-1.62462,-9.85408
11.13361,0.42452,-1.58481,-9.71777
11.14365,0.55501,-1.48785,-9.67632
11.15369,0.58404,-1.40061,-9.65492
11.16373,0.50024,-1.36903,-9.64773
11.17377,0.31559,-1.42784,-9.64474
11.18381,0.14799,-1.51987,-9.65492
11.19385,0.08888,-1.56416,-9.68918
11.20389,0.14515,-1.53019,-9.67437
11.21393,0.18211,-1.4862,-9.63906
11.22397,0.12046,-1.4449,-9.64235
11.23401,0.04549,-1.41168,-9.56888
11.24404,-0.07272,-1.44774,-9.57112
11.25408,-0.19498,-1.5296,-9.56229
11.26412,-0.25289,-1.5911,-9.57935
11.27416,-0.2888,-1.60232,-9.60225
11.2842,-0.29987,-1.58092,-9.67138
11.29424,-0.29015,-1.53244,-9.61481
11.30428,-0.32741,-1.42485,-9.43465
11.31432,-0.36975,-1.35003,-9.28112
11.32436,-0.49874,-1.37382,-9.19957
11.3344,-0.69492,-1.41422,-9.10635
11.34444,-0.88675,-1.54231,-9.13448
11.35448,-0.9906,-1.72667,-9.26197
11.36452,-1.00482,-1.88109,-9.39814
11.37456,-1.07215,-1.96384,-9.49316
11.38459,-1.11854,-1.99691,-9.57217
11.39463,-1.13276,-1.97192,-9.63038
11.40467,-1.07829,-1.898,-9.63502
11.41471,-0.91264,-1.79116,-9.64579
11.42475,-0.72065,-1.69719,-9.63292
11.43479,-0.59152,-1.57523,-9.57172
11.44483,-0.51206,-1.43787,-9.45186
11.45487,-0.53989,-1.36874,-9.29025
11.46491,-0.59331,-1.34464,-9.23159
11.47495,-0.67232,-1.39193,-9.34981
11.48499,-0.68205,-1.51149,-9.55406
11.49503,-0.65272,-1.58152,-9.6811
11.50507,-0.66634,-1.57284,-9.71911
11.5151,-0.71946,-1.53842,-9.78346
11.52514,-0.79353,-1.46705,-9.86665
11.53518,-0.89049,-1.46001,-9.92561
11.54522,-0.91488,-1.52107,-9.91873
11.55526,-0.85997,-1.59229,-9.82446
11.5653,-0.74549,-1.64556,-9.63846
11.57534,-0.57461,-1.59873,-9.44572
11.58538,-0.46792,-1.53887,-9.28771
11.59542,-0.45385,-1.45148,-9.18221
11.60546,-0.50757,-1.41946,-9.14226
11.6155,-0.56309,-1.52436,-9.19179
11.62554,-0.5978,-1.6737,-9.36716
11.63558,-0.58553,-1.78054,-9.5804
11.64562,-0.58823,-1.76378,-9.75517
11.65565,-0.58613,-1.66113,-9.87414
11.66569,-0.58568,-1.55054,-9.92022
11.67573,-0.52523,-1.49159,-9.90167
11.68577,-0.39265,-1.47199,-9.86232
11.69581,-0.25708,-1.49204,-9.83344
11.70585,-0.19273,-1.49278,-9.77029
11.71589,-0.18286,-1.46046,-9.6838
11.72593,-0.20186,-1.44819,-9.60015
11.73597,-0.23149,-1.47513,-9.58249
11.74601,-0.25768,-1.5067,-9.65163
11.75605,-0.24645,-1.57568,-9.7863
11.76609,-0.2873,-1.58975,-9.89419
11.77613,-0.27174,-1.54381,-9.94925
11.78617,-0.23613,-1.50805,-9.96497
11.7962,-0.16311,-1.47692,-9.98247
11.80624,-0.10445,-1.43697,-9.90616
11.81628,-0.04115,-1.41108,-9.77508
11.82632,-0.05237,-1.43936,-9.61811
11.83636,-0.03891,-1.49144,-9.49301
11.8464,-0.01781,-1.51433,-9.46593
11.85644,0.01736,-1.49503,-9.50797
11.86648,0.03756,-1.46286,-9.58354
11.87652,0.05866,-1.43712,-9.70325
11.88656,0.13752,-1.36814,-9.79872
11.8966,0.21219,-1.26264,-9.88925
11.90664,0.27907,-1.1579,-9.96586
11.91668,0.35539,-1.06093,-9.94402
11.92672,0.39953,-0.98282,-9.85648
11.93675,0.43036,-0.95963,-9.75637
11.94679,0.43335,-0.9689,-9.69218
11.95683,0.43081,-1.02068,-9.71881
11.96687,0.4344,-1.09505,-9.75817
11.97691,0.39983,-1.11959,-9.82101
11.98695,0.35419,-1.13964,-9.83358
11.99699,0.32337,-1.13605,-9.79154
12.00703,0.32801,-1.14368,-9.75383
12.01707,0.35449,-1.1543,-9.71851
12.02711,0.41614,-1.19052,-9.68335
12.03715,0.44697,-1.1751,-9.65537
12.04719,0.45235,-1.15909,-9.62664
12.05723,0.45669,-1.12842,-9.63098
12.06727,0.46852,-1.13111,-9.62424
12.0773,0.45654,-1.1549,-9.65701
12.08734,0.45654,-1.17585,-9.73662
12.09738,0.42033,-1.15146,-9.85603
12.10742,0.43021,-1.12737,-10.02617
12.11746,0.47899,-1.10014,-10.08782
12.1275,0.48168,-1.05704,-9.99325
12.13754,0.49291,-1.01604,-9.8701
12.14758,0.52283,-0.98626,-9.76161
12.15762,0.49994,-0.97519,-9.76744
12.16766,0.44323,-0.96097,-9.85902
12.1777,0.40597,-1.02247,-9.84137
12.18774,0.39025,-1.11465,-9.74515
12.19778,0.38756,-1.1965,-9.63786
12.20782,0.40567,-1.25546,-9.53027
12.21785,0.42048,-1.29227,-9.48418
12.22789,0.41779,-1.25696,-9.47685
12.23793,0.43649,-1.20084,-9.46129
12.24797,0.49515,-1.1757,-9.48568
12.25801,0.53346,-1.14563,-9.53147
12.26805,0.52912,-1.12213,-9.61287
12.27809,0.47016,-1.05884,-9.73901
12.28813,0.41031,-1.03534,-9.84645
12.29817,0.38173,-1.05016,-9.91394
12.30821,0.35644,-1.08981,-9.89823
12.31825,0.29538,-1.12872,-9.82805
12.32829,0.26022,-1.12333,-9.80515
12.33833,0.27503,-1.0949,-9.81593
12.34837,0.29299,-1.04253,-9.75278
12.3584,0.32756,-1.03459,-9.67976
12.36844,0.32501,-1.0548,-9.61227
12.37848,0.32007,-1.07275,-9.55361
12.38852,0.31963,-1.10178,-9.54194
12.39856,0.309,-1.10193,-9.54837
12.4086,0.33025,-1.06751,-9.58309
12.41864,0.30017,-0.9915,-9.66809
12.42868,0.23074,-0.97564,-9.70639
12.43872,0.16954,-1.01469,-9.72824
12.44876,0.13602,-1.07769,-9.74874
12.4588,0.14799,-1.10522,-9.77059
12.46884,0.16251,-1.08218,-9.77448
12.47888,0.16266,-1.08278,-9.7245
12.48892,0.16774,-1.09176,-9.67736
12.49896,0.15473,-1.11854,-9.65058
12.50899,0.17657,-1.15026,-9.67018
12.51903,0.19438,-1.12483,-9.71268
12.52907,0.1664,-1.10253,-9.71747
12.53911,0.15921,-1.10073,-9.75143
12.54915,0.10849,-1.1163,-9.80426
12.55919,0.04773,-1.10343,-9.85289
12.56923,0.00269,-1.1359,-9.88805
12.57927,-0.01571,-1.18259,-9.91364
12.58931,-0.04654,-1.2794,-9.94222
12.59935,-0.05626,-1.30379,-9.99654
12.60939,-0.07063,-1.20877,-10.06747
12.61943,-0.08499,-1.12094,-10.17341
12.62947,-0.10759,-1.01484,-10.30943
12.63951,-0.13976,-0.92596,-10.56382
12.64954,-0.09397,-0.87762,-10.94434
12.65958,-0.13931,-0.79562,-11.36318
12.66962,-0.17538,-0.69312,-11.83708
12.67966,-0.19887,-0.56503,-12.23362
12.6897,-0.30047,-0.50802,-12.40586
12.69974,-0.37409,-0.48827,-12.47185
12.70978,-0.46433,-0.454,-12.46391
12.71982,-0.52343,-0.45415,-12.47918
12.72986,-0.49949,-0.47944,-12.49639
12.7399,-0.40941,-0.42243,-12.56402
12.74994,-0.20725,-0.29284,-12.68209
12.75998,-0.05656,-0.23613,-12.82499
12.77002,-0.03352,-0.20321,-12.80644
12.78006,0.05866,-0.12151,-12.72907
12.7901,0.13752,0.00943,-12.7593
12.80014,0.07572,0.05761,-12.79791
12.81017,-0.13647,0.11432,-12.82304
12.82021,-0.35973,0.20635,-12.83965
12.83025,-0.42467,0.26142,-12.74478
12.84029,-0.3925,0.32007,-12.45329
12.85033,-0.34821,0.33893,-12.00961
12.86037,-0.2059,0.29598,-11.48514
12.87041,-0.03756,0.23643,-10.93716
12.88045,0.0208,0.09053,-10.5897
12.89049,-0.04938,-0.0398,-10.38964
12.90053,-0.0826,-0.20066,-10.34026
12.91057,-0.04758,-0.29329,-10.32559
12.92061,0.00419,-0.37828,-10.28384
12.93065,-0.0606,-0.43679,-10.31347
12.94068,-0.23927,-0.37559,-10.36839
12.95072,-0.35389,-0.24391,-10.45967
12.96076,-0.33474,-0.09233,-10.50606
12.9708,-0.41031,-0.04893,-10.49902
12.98084,-0.56713,-0.09517,-10.49798
12.99088,-0.73786,-0.24166,-10.57893
13.00092,-0.72739,-0.38636,-10.64462
13.01096,-0.69133,-0.40492,-10.45174
13.021,-0.60588,-0.41884,-10.0317
13.03104,-0.48976,-0.49784,-9.59806
13.04108,-0.37858,-0.65586,-9.22905
13.05112,-0.25708,-0.88152,-9.09183
13.06116,-0.14605,-1.12423,-9.27364
13.0712,-0.12629,-1.1787,-9.51201
13.08124,-0.08903,-1.10687,-9.75742
13.09127,-0.08155,-0.97399,-9.95045
13.10131,-0.06734,-0.93179,-9.9913
13.11135,-0.01092,-0.93823,-9.94222
13.12139,0.21967,-0.97833,-9.89972
13.13143,0.37544,-0.88256,-9.66375
13.14147,0.42078,-0.79443,-9.24237
13.15151,0.48378,-0.908,-8.92319
13.16155,0.40537,-1.26399,-8.58546
13.17159,0.16101,-1.67998,-8.18024
13.18163,-0.15428,-1.83695,-7.98062
13.19167,-0.29808,-1.67145,-8.14448
13.20171,-0.32726,-1.18034,-8.69724
13.21175,-0.3503,-0.36078,-9.44348
13.22179,-0.27518,0.2282,-10.1164
13.23183,-0.20276,0.47959,-10.43902
13.24186,0.06509,0.62025,-10.39996
13.2519,0.61247,0.77213,-10.07944
13.26194,1.16463,0.90396,-9.50977
13.27198,1.54396,0.76749,-8.74692
13.28202,1.77949,0.39878,-7.99379
13.29206,1.83276,-0.13288,-7.35229
13.3021,1.72397,-0.67576,-6.82033
13.31214,1.51269,-0.97085,-6.27206
13.32218,1.40151,-0.97459,-6.00047
13.33222,1.3828,-0.88226,-5.95094
13.34226,1.5498,-0.7428,-6.1709
13.3523,1.86404,-0.65451,-6.50968
13.36234,2.20506,-0.60543,-7.07262
13.37238,2.35096,-0.56563,-7.74973
13.38242,2.42563,-0.55141,-8.20508
13.39245,2.4988,-0.50922,-8.31087
13.40249,2.47545,-0.52628,-8.2977
13.41253,2.24262,-0.82241,-8.28708
13.42257,1.8386,-1.28658,-8.06801
13.43261,1.49488,-1.74163,-7.80899
13.44265,1.23077,-2.01562,-7.42053
13.45269,1.0126,-2.17289,-7.16091
13.46273,0.99075,-2.28197,-7.12619
13.47277,1.0729,-2.36996,-7.36157
13.48281,1.07769,-2.33135,-7.70215
13.49285,1.072,-2.24232,-8.06038
13.50289,1.15625,-2.12366,-8.47981
13.51293,1.23361,-1.82543,-8.87052
13.52297,1.3023,-1.55339,-9.04185
13.53301,1.35287,-1.44729,-9.06295
13.54304,1.35766,-1.48605,-8.92918
13.55308,1.29167,-1.72427,-8.58875
13.56312,1.05928,-2.002,-8.20104
13.57316,0.86266,-2.19728,-7.93723
13.5832,0.82136,-2.36981,-7.9079
13.59324,0.8049,-2.45032,-7.94561
13.60328,0.84979,-2.35619,-8.00546
13.61332,0.96621,-2.20805,-8.24997
13.62336,1.05988,-1.99272,-8.49238
13.6334,1.13321,-1.75839,-8.63843
13.64344,1.17974,-1.60426,-8.74737
13.65348,1.21356,-1.54965,-8.8367
13.66352,1.24199,-1.4675,-8.86693
13.67356,1.27177,-1.33073,-8.86214
13.6836,1.32055,-1.19037,-8.82578
13.69363,1.31068,-1.1335,-8.74901
13.70367,1.20832,-1.31427,-8.70158
13.71371,1.03355,-1.52571,-8.64726
13.72375,0.85488,-1.60277,-8.62975
13.73379,0.66723,-1.62701,-8.69843
13.74383,0.48662,-1.62147,-8.82937
13.75387,0.32875,-1.5881,-9.0203
13.76391,0.26935,-1.48441,-9.17862
13.77395,0.29883,-1.35168,-9.06355
13.78399,0.28162,-1.30215,-8.74063
13.79403,0.31499,-1.37711,-8.48221
13.80407,0.309,-1.4054,-8.27032
13.81411,0.3105,-1.30679,-8.2169
13.82415,0.3934,-1.10118,-8.21316
13.83419,0.52179,-0.99314,-8.30967
13.84422,0.62339,-0.91877,-8.33302
13.85426,0.68115,-0.92117,-8.29351
13.8643,0.63746,-0.97414,-8.16887
13.87434,0.59571,-1.01709,-8.04946
13.88438,0.5791,-1.02936,-7.96162
13.89442,0.60334,-0.93449,-7.93648
13.90446,0.61112,-0.79802,-8.10018
13.9145,0.43515,-0.89049,-8.3613
13.92454,0.13991,-1.09834,-8.52081
13.93458,0.15667,-1.21925,-8.38824
13.94462,0.28686,-1.05629,-8.08073
13.95466,0.3696,-0.74909,-7.79522
13.9647,0.54124,-0.5143,-7.83458
13.97474,0.81283,-0.38966,-8.15719
13.98478,0.95723,-0.39085,-8.47817
13.99481,0.81957,-0.5146,-8.62017
14.00485,0.49695,-0.8049,-8.52336
14.01489,0.24271,-1.16313,-8.23695
14.02493,-0.03636,-1.4431,-7.97703
14.03497,-0.28446,-1.73565,-7.82709
14.04501,-0.38621,-2.02774,-7.69511
14.05505,-0.15069,-2.08819,-7.56239
14.06509,0.22311,-1.9815,-7.38282
14.07513,0.46118,-1.75974,-7.1865
14.08517,0.68833,-1.51299,-7.15328
14.09521,0.89678,-1.3219,-7.3101
14.10525,1.12513,-1.12408,-7.67746
14.11529,1.32938,-1.0334,-8.14941
14.12533,1.33626,-1.00646,-8.44944
14.13537,1.21895,-0.98327,-8.51872
14.1454,1.13306,-0.92207,-8.57453
14.15544,1.05584,-0.78021,-8.62676
14.16548,0.85727,-0.75956,-8.62167
14.17552,0.69462,-0.88556,-8.81874
14.18556,0.92835,-0.98207,-9.11248
14.1956,1.33731,-1.02771,-9.31913
14.20564,1.67878,-0.76061,-9.40652
14.21568,2.04285,-0.06749,-9.59057
14.22572,2.21359,0.62698,-9.86665
14.23576,2.0635,0.85907,-10.40475
14.2458,1.73744,0.58089,-11.01782
14.25584,1.40016,0.09397,-11.03024
14.26588,1.16897,-0.34013,-10.53524
14.27592,1.04866,-0.50473,-9.98816
14.28596,1.03759,-0.46837,-9.73946
14.296,1.03265,-0.45475,-9.77044
14.30603,0.88406,-0.6415,-9.93205
14.31607,0.67681,-0.97878,-10.09889
14.32611,0.43679,-1.22628,-10.11999
14.33615,0.28237,-1.22748,-9.91484
14.34619,0.28686,-0.92072,-9.8484
14.35623,0.34701,-0.45445,-10.22923
14.36627,0.29209,-0.12644,-10.94375
14.37631,0.01422,-0.12764,-11.65961
14.38635,-0.27967,-0.38651,-11.99615
14.39639,-0.42602,-0.68354,-11.98208
14.40643,-0.46043,-0.89558,-11.6662
14.41647,-0.268,-0.87762,-11.41196
14.42651,-0.17657,-0.60843,-11.60634
14.43655,-0.18211,-0.39549,-12.19906
14.44659,-0.10056,-0.28027,-12.85582
14.45662,-0.00224,-0.25199,-13.18562
14.46666,0.11881,-0.26052,-13.18517
14.4767,0.21293,-0.2077,-13.00261
14.48674,0.25259,-0.0633,-12.78653
14.49678,0.28177,-0.03457,-12.75825
14.50682,0.42662,-0.11328,-12.82559
14.51686,0.69402,-0.12375,-12.79012
14.5269,0.98417,-0.11702,-12.6363
14.53694,1.16493,-0.11432,-12.52601
14.54698,1.26833,-0.07183,-12.57001
14.55702,1.23242,-0.05941,-12.6987
14.56706,1.19246,-0.10056,-12.69062
14.5771,1.2577,-0.10759,-12.50641
14.58714,1.35467,-0.10026,-12.20564
14.59718,1.466,-0.09203,-11.82227
14.60722,1.55084,-0.07093,-11.26636
14.61725,1.59813,-0.11462,-10.68876
14.62729,1.63674,-0.26845,-10.06657
14.63733,1.66173,-0.48782,-9.37405
14.64737,1.75704,-0.78814,-8.92693
14.65741,1.80463,-1.08921,-8.59952
14.66745,1.79311,-1.31142,-8.69185
14.67749,1.70751,-1.35856,-9.36282
14.68753,1.6912,-1.24244,-10.35777
14.69757,1.73729,-0.99509,-11.04206
14.70761,1.88484,-0.52613,-11.3536
14.71765,2.17259,-0.12046,-11.29584
14.72769,2.49476,0.21802,-11.03069
14.73773,2.68794,0.36661,-10.48361
14.74777,2.75228,0.30436,-9.61975
14.75781,2.67806,0.07347,-8.80198
14.76784,2.58843,-0.27578,-8.19849
14.77788,2.44732,-0.63401,-7.9691
14.78792,2.18965,-0.97294,-8.34245
14.79796,1.79715,-1.22044,-8.91601
14.808,1.29915,-1.37113,-9.40831
14.81804,0.92745,-1.46226,-9.79423
14.82808,0.73682,-1.36739,-9.96347
14.83812,0.72814,-1.11241,-9.95778
14.84816,0.83258,-0.77482,-9.81787
14.8582,0.93164,-0.49306,-9.63681
14.86824,0.97848,-0.47001,-9.57292
14.87828,0.76989,-0.66484,-9.62454
14.88832,0.50173,-0.89124,-9.65821
14.89836,0.23688,-1.1576,-9.54389
14.9084,0.0208,-1.48545,-9.37674
14.91844,-0.16804,-1.78203,-9.1267
14.92847,-0.37365,-1.9001,-8.85301
14.93851,-0.7449,-1.84877,-8.65444
14.94855,-1.13859,-1.69046,-8.93007
14.95859,-1.5263,-1.30948,-9.52982
14.96863,-1.96115,-1.12288,-10.60871
14.97867,-2.02445,-0.73981,-11.28372
14.98871,-2.10854,-0.31678,-11.73338
14.99875,-2.12051,-0.02289,-11.92297
15.00879,-2.14969,-0.0838,-11.83229
15.01883,-2.22376,-0.36197,-11.62549
15.02887,-2.17663,-0.64509,-11.10835
15.03891,-2.10585,-0.9303,-10.37707
15.04895,-1.879,-1.18962,-9.56274
15.05899,-1.5058,-1.47064,-8.74153
15.06903,-1.25621,-1.7156,-8.0737
15.07906,-1.16044,-1.86927,-7.78131
15.0891,-1.13545,-1.8585,-7.99618
15.09914,-1.16074,-1.71126,-8.51617
15.10918,-1.31666,-1.48994,-9.03527
15.11922,-1.46914,-1.31187,-9.38063
15.12926,-1.44385,-1.19905,-9.51291
15.1393,-1.40585,-1.06796,-9.58025
15.14934,-1.35198,-0.85787,-9.64714
15.15938,-1.35781,-0.56234,-9.79139
15.16942,-1.46525,-0.41869,-10.0142
15.17946,-1.59214,-0.44383,-10.21022
15.1895,-1.78129,-0.62055,-10.40296
15.19954,-1.99572,-0.88615,-10.45458
15.20958,-2.14775,-1.07036,-10.32006
15.21962,-1.99437,-1.19336,-10.05984
15.22966,-1.68941,-1.19545,-9.74171
15.23969,-1.60337,-1.17615,-9.61362
15.24973,-1.72128,-1.12004,-9.6835
15.25977,-1.86673,-1.05644,-9.98352
15.26981,-1.98644,-0.99015,-10.29357
15.27985,-1.98883,-0.9297,-10.52745
15.28989,-1.80418,-0.85398,-10.55738
15.29993,-1.5884,-0.76151,-10.42181
15.30997,-1.38534,-0.65047,-10.33098
15.32001,-1.26698,-0.48857,-10.34909
15.33005,-1.28883,-0.40238,-10.50875
15.34009,-1.27551,-0.52074,-10.73515
15.35013,-1.34853,-0.66948,-10.77106
15.36017,-1.42395,-0.75492,-10.64597
15.37021,-1.40899,-0.79577,-10.38261
15.38025,-1.33133,-0.90561,-9.99534
15.39029,-1.21042,-1.02996,-9.6817
15.40032,-1.09235,-1.07185,-9.51605
15.41036,-1.02621,-1.10283,-9.60239
15.4204,-0.99225,-1.09984,-9.80515
15.43044,-0.98117,-1.04297,-9.99654
15.44048,-0.93643,-0.97654,-9.96931
15.45052,-0.7838,-0.95229,-9.805
15.46056,-0.52134,-0.95199,-9.5376
15.4706,-0.31184,-0.84665,-9.23084
15.48064,-0.23583,-0.74385,-9.06804
15.49068,-0.30765,-0.76121,-9.16919
15.50072,-0.45999,-0.82989,-9.43031
15.51076,-0.4962,-0.87269,-9.76445
15.5208,-0.45176,-0.79936,-9.95778
15.53084,-0.35659,-0.74071,-9.98143
15.54088,-0.27518,-0.73173,-9.86022
15.55091,-0.24675,-0.75043,-9.7233
15.56095,-0.31394,-0.80984,-9.67856
15.57099,-0.38981,-0.85413,-9.73019
15.58103,-0.42751,-0.89992,-9.78181
15.59107,-0.37394,-0.91324,-9.74934
15.60111,-0.2692,-0.848,-9.61721
15.61115,-0.13827,-0.73891,-9.48747
15.62119,-0.00479,-0.66005,-9.36657
15.63123,0.08544,-0.58823,-9.33993
15.64127,0.04145,-0.56847,-9.42792
15.65131,-0.04175,-0.5556,-9.56932
15.66135,-0.16595,-0.5969,-9.73452
15.67139,-0.29553,-0.62189,-9.89913
15.68143,-0.33504,-0.58299,-9.9919
15.69147,-0.25588,-0.51715,-10.06253
15.70151,-0.18675,-0.4124,-10.06418
15.71154,-0.13602,-0.31499,-10.04951
15.72158,-0.07093,-0.23568,-10.06088
15.73162,-0.06868,-0.17388,-10.05505
15.74166,-0.13647,-0.21608,-10.07405
15.7517,-0.26995,-0.33264,-10.1176
15.76174,-0.39684,-0.51146,-10.10069
15.77178,-0.49261,-0.66619,-9.96916
15.78182,-0.35015,-0.79981,-9.75817
15.79186,-0.10968,-0.81298,-9.4957
15.8019,0.03008,-0.80655,-9.30462
15.81194,-0.01032,-0.81403,-9.2714
15.82198,-0.12944,-0.81567,-9.33649
15.83202,-0.20186,-0.82794,-9.48972
15.84206,-0.18899,-0.87703,-9.61152
15.8521,-0.07796,-0.93284,-9.62753
15.86214,0.04983,-0.90935,-9.53491
15.87217,0.07302,-0.86027,-9.50618
15.88221,-0.00793,-0.86685,-9.61033
15.89225,-0.13886,-0.95304,-9.77927
15.90229,-0.18166,-1.01424,-9.8493
15.91233,-0.14141,-1.02352,-9.7646
15.92237,-0.04788,-0.99868,-9.59102
15.93241,0.07033,-0.93419,-9.45276
15.94245,0.08455,-0.90172,-9.4779
15.95249,0.09038,-0.86969,-9.64384
15.96253,0.04699,-0.86131,-9.80635
15.97257,-0.01362,-0.87673,-9.92831
15.98261,-0.02679,-0.90725,-9.94222
15.99265,0.01796,-0.93509,-9.88461
16.00269,0.06479,-0.86072,-9.75353
16.01273,0.08245,-0.81986,-9.6615
16.02276,0.04609,-0.80939,-9.55601
16.0328,0.02424,-0.84426,-9.54823
16.04284,-0.0202,-0.86999,-9.59925
16.05288,-0.02065,-0.92147,-9.67691
16.06292,-0.05207,-0.92416,-9.74874
16.07296,-0.02679,-0.91384,-9.83388
16.083,-0.01796,-0.90306,-9.96048
16.09304,-0.02963,-0.84815,-10.07031
16.10308,-0.04369,-0.7642,-10.14528
16.11312,-0.02963,-0.70464,-10.16339
16.12316,0.00135,-0.70539,-10.00477
16.1332,0.03172,-0.74879,-9.78196
16.14324,0.03846,-0.81463,-9.62379
16.15328,0.00883,-0.89109,-9.61018
16.16332,-0.0208,-0.88556,-9.70549
16.17336,-0.01437,-0.86326,-9.83942
16.18339,-0.01003,-0.81807,-9.97799
16.19343,-0.05387,-0.82091,-10.06837
16.20347,-0.10774,-0.7832,-10.12463
16.21351,-0.13797,-0.74654,-10.04921
16.22355,-0.12779,-0.76525,-9.86471
16.23359,-0.07646,-0.77363,-9.64579
16.24363,0.00718,-0.77168,-9.47146
16.25367,0.03891,-0.79487,-9.43091
16.26371,0.03816,-0.76136,-9.49331
16.27375,0.03786,-0.73083,-9.62813
16.28379,0.02319,-0.74445,-9.71627
16.29383,0.0015,-0.83468,-9.75009
16.30387,-0.01257,-0.88735,-9.73931
16.31391,0.0208,-0.89184,-9.71298
16.32395,0.07347,-0.85952,-9.72869
16.33399,0.09248,-0.84725,-9.73886
16.34402,0.06629,-0.85653,-9.77463
16.35406,0.05237,-0.8465,-9.76864
16.3641,0.12824,-0.85383,-9.67617
16.37414,0.16565,-0.84455,-9.54583
16.38418,0.14365,-0.83213,-9.46458
16.39422,0.08933,-0.82465,-9.43435
16.40426,0.03891,-0.85204,-9.48403
16.4143,-0.00479,-0.94691,-9.56528
16.42434,-0.04459,-1.00781,-9.72046
16.43438,-0.05237,-0.99793,-9.95629
16.44442,-0.00269,-0.86939,-10.18478
16.45446,0.06883,-0.68025,-10.3639
16.4645,0.07886,-0.54453,-10.45353
16.47454,0.02484,-0.50413,-10.4058
16.48458,-0.13123,-0.58523,-10.3226
16.49461,-0.39085,-0.73831,-10.4676
16.50465,-0.59735,-0.83064,-11.10161
16.51469,-0.68998,-0.81313,-11.95425
16.52473,-0.46328,-0.69866,-12.95203
16.53477,-0.25199,-0.42303,-13.90852
16.54481,-0.30676,-0.06749,-14.55345
16.55485,-0.4938,0.28267,-14.77537
16.56489,-0.75762,0.34402,-14.59041
16.57493,-1.03744,-0.0214,-14.29473
16.58497,-1.17959,-0.45684,-13.63408
16.59501,-1.04043,-0.65766,-12.67565
16.60505,-0.85249,-0.70958,-11.65767
16.61509,-0.7841,-0.65811,-10.59255
16.62513,-0.65466,-0.57311,-9.78839
16.63517,-0.61785,-0.58404,-9.45216
16.64521,-0.7428,-0.69881,-9.50573
16.65524,-0.99823,-0.77841,-10.07959
16.66528,-1.20443,-0.87807,-11.13184
16.67532,-1.26354,-0.85488,-11.79803
16.68536,-1.31726,-0.67771,-11.76346
16.6954,-1.32489,-0.54019,-11.30183
16.70544,-1.55309,-0.49635,-10.58297
16.71548,-1.85925,-0.45879,-10.00238
16.72552,-1.95621,-0.38607,-9.57172
16.73556,-1.71036,-0.19617,-9.13313
16.7456,-1.36754,-0.06913,-8.90852
16.75564,-1.23346,-0.04534,-9.22486
16.76568,-1.37143,-0.17597,-10.55648
16.77572,-1.49144,-0.11477,-12.1386
16.78576,-1.50386,0.2891,-13.16153
16.7958,-1.53783,0.92072,-13.3146
16.80583,-1.62297,1.51224,-13.02087
16.81587,-1.54261,1.95591,-12.84774
16.82591,-1.53812,2.1886,-12.87632
16.83595,-1.45538,2.05722,-12.96984
16.84599,-1.36933,1.82678,-12.72309
16.85603,-1.38295,1.56775,-12.21387
16.86607,-1.33986,1.30514,-11.6047
16.87611,-1.27761,1.13395,-11.04041
16.88615,-1.08772,1.01664,-10.67545
16.89619,-0.87807,0.83962,-10.7335
16.90623,-0.88301,0.57715,-10.94704
16.91627,-0.86146,0.50712,-11.0268
16.92631,-0.58,0.67202,-10.85381
16.93635,-0.24885,0.91533,-10.36704
16.94639,-0.04295,1.04387,-9.7429
16.95643,-0.05372,0.80819,-9.247
16.96646,-0.24376,0.36467,-8.98364
16.9765,-0.4344,-0.01152,-8.9606
16.98654,-0.50159,-0.36482,-9.14226
16.99658,-0.44787,-0.60513,-9.42223
17.00662,-0.38188,-0.72245,-9.70101
17.01666,-0.44966,-0.76166,-9.98786
17.0267,-0.66304,-0.66424,-10.16413
17.03674,-0.82091,-0.44966,-10.15171
17.04678,-1.00167,-0.2894,-9.96467
17.05682,-1.10867,-0.39998,-9.8279
17.06686,-1.22778,-0.39355,-9.78286
17.0769,-1.2185,-0.25229,-9.73931
17.08694,-0.9074,-0.02035,-9.75443
17.09698,-0.55082,0.51475,-9.60913
17.10702,-0.287,0.90441,-9.54239
17.11705,-0.09936,0.93718,-9.6416
17.12709,-0.05462,0.88855,-9.48837
17.13713,-0.10774,0.78605,-9.19688
17.14717,-0.14904,0.58823,-9.0625
17.15721,-0.0202,0.54274,-8.96284
17.16725,0.23688,0.67442,-8.61224
17.17729,0.476,0.73188,-8.14223
17.18733,0.71078,0.6418,-7.75527
17.19737,0.88137,0.53525,-7.44776
17.20741,1.00616,0.64554,-7.08803
17.21745,1.35946,0.7618,-6.63523
17.22749,1.53798,0.91054,-6.25605
17.23753,1.51897,1.03459,-5.96994
17.24757,1.45971,0.90351,-5.86699
17.25761,1.28554,0.58658,-5.98431
17.26765,0.93538,0.26336,-6.15639
17.27768,0.64748,0.11851,-6.25216
17.28772,0.47046,0.00374,-6.36454
17.29776,0.33369,-0.21398,-6.53842
17.3078,0.23388,-0.45804,-6.76003
17.31784,0.09697,-0.5984,-6.85191
17.32788,0.06434,-0.73128,-6.94782
17.33792,-0.04669,-0.88526,-7.204
17.34796,-0.18241,-0.93793,-7.43998
17.358,-0.27264,-0.8034,-7.56628
17.36804,-0.26516,-0.64838,-7.6369
17.37808,-0.18076,-0.47989,-7.70319
17.38812,-0.01526,-0.287,-7.61655
17.39816,0.28147,-0.13288,-7.55221
17.4082,0.45161,-0.09652,-7.71262
17.41824,0.52149,-0.11522,-7.79507
17.42827,0.46792,-0.25094,-7.76649
17.43831,0.2062,-0.58389,-7.83158
17.44835,-0.05222,-0.97953,-8.0101
17.45839,-0.30421,-1.19037,-8.12891
17.46843,-0.4148,-1.14024,-8.04661
17.47847,-0.35808,-1.04716,-7.885
17.48851,-0.39444,-1.04267,-7.88381
17.49855,-0.38921,-1.22628,-7.86181
17.50859,-0.26202,-1.40824,-7.82126
17.51863,-0.20096,-1.3424,-7.66549
17.52867,-0.10894,-1.25157,-7.5549
17.53871,-0.1254,-1.33641,-7.54578
17.54875,-0.28416,-1.61579,-7.56687
17.55879,-0.50907,-1.82812,-7.54159
17.56883,-0.74968,-1.89187,-7.62089
17.57886,-0.73756,-1.78772,-7.96985
17.5889,-0.56997,-1.64661,-8.22603
17.59894,-0.35584,-1.52915,-8.18278
17.60898,-0.17104,-1.46121,-7.88964
17.61902,-0.25678,-1.50101,-7.54353
17.62906,-0.39265,-1.66547,-7.29019
17.6391,-0.3096,-1.69869,-7.0207
17.64914,-0.21518,-1.59155,-6.59752
17.65918,-0.19947,-1.43054,-6.18617
17.66922,-0.09442,-1.33192,-6.29495
17.67926,-0.15173,-1.26459,-6.57268
17.6893,-0.1842,-1.25636,-6.80432
17.69934,-0.28237,-1.33118,-6.99511
17.70938,-0.41599,-1.45971,-7.1627
17.71942,-0.60648,-1.50176,-7.1648
17.72946,-0.66304,-1.20204,-7.06753
17.73949,-0.32591,-0.83992,-6.90188
17.74953,-0.02693,-0.67801,-6.75045
17.75957,0.16789,-0.58823,-6.61712
17.76961,0.30691,-0.60828,-6.55562
17.77965,0.44113,-0.72245,-6.55562
17.78969,0.66619,-0.64584,-6.55039
17.79973,0.94526,-0.46014,-6.69015
17.80977,0.86491,-0.34641,-6.98374
17.81981,0.618,-0.32127,-7.25727
17.82985,0.37888,-0.44248,-7.42098
17.83989,0.04639,-0.5381,-7.45569
17.84993,-0.10235,-0.47869,-7.42128
17.85997,0.04863,-0.29374,-7.35319
17.87001,0.23358,-0.02245,-7.26206
17.88005,0.27174,0.15069,-7.33374
17.89008,-0.13288,-0.04369,-7.55086
17.90012,-0.7024,-0.46926,-7.60084
17.91016,-1.1543,-1.03609,-7.4717
17.9202,-1.09026,-1.52541,-7.22645
17.93024,-0.58433,-1.59603,-6.82692
17.94028,0.06584,-1.1974,-6.6692
17.95032,0.71018,-0.40507,-6.95321
17.96036,1.2167,0.65362,-7.5751
17.9704,1.6318,1.59978,-8.0704
17.98044,1.8172,2.36577,-8.63663
17.99048,1.64033,2.81289,-9.46907
18.00052,1.03938,2.82576,-10.50172
18.01056,0.30511,2.67088,-11.5411
18.0206,-0.38292,2.50059,-12.31188
18.03064,-0.69836,2.28751,-12.54996
18.04067,-0.6801,1.85625,-12.09895
18.05071,-0.43634,1.26623,-11.3132
18.06075,-0.10968,0.72799,-10.47658
18.07079,0.06165,0.30182,-10.2207
18.08083,-0.00973,0.07108,-10.79112
18.09087,-0.10579,0.12644,-11.80745
18.10091,-0.22954,0.34432,-12.69959
18.11095,-0.28551,0.4552,-13.16946
18.12099,-0.26606,0.4344,-13.09329
18.13103,-0.00135,0.25842,-12.35393
18.14107,0.27548,-0.07736,-11.60395
18.15111,0.39744,-0.47974,-11.24362
18.16115,0.43604,-0.99614,-11.47092
18.17119,0.39055,-1.43921,-12.21776
18.18123,0.2689,-1.60741,-13.06172
18.19126,0.26845,-1.43054,-13.78207
18.2013,0.39519,-1.01619,-14.04678
18.21134,0.83707,-0.4962,-14.12953
18.22138,1.20324,0.07362,-14.28351
18.23142,1.34225,0.48587,-14.79063
18.24146,1.23062,0.6008,-15.38634
18.2515,0.98402,0.51041,-15.70102
18.26154,0.81403,0.29105,-15.65583
18.27158,0.71512,0.14799,-15.33262
18.28162,0.74729,0.06868,-15.02137
18.29166,0.68669,0.03531,-14.77192
18.3017,0.4962,0.03397,-14.47849
18.31174,0.25379,-0.16789,-14.31418
18.32178,-0.00015,-0.51954,-14.09766
18.33182,-0.13243,-0.77707,-13.48504
18.34185,0.06434,-0.77228,-12.60906
18.35189,0.53136,-0.49665,-11.74431
18.36193,0.83228,-0.24675,-11.19633
18.37197,1.01963,-0.09128,-11.06884
18.38201,1.02621,-0.07916,-11.11284
18.39205,0.88361,-0.20276,-11.1091
18.40209,0.70943,-0.45984,-11.10266
18.41213,0.50922,-0.78889,-11.01856
18.42217,0.38382,-1.03115,-10.75101
18.43221,0.27503,-1.22778,-10.34954
18.44225,0.23314,-1.34809,-9.93968
18.45229,0.32696,-1.3641,-9.6193
18.46233,0.3919,-1.36574,-9.34921
18.47237,0.51879,-1.36634,-9.25015
18.48241,0.58912,-1.33162,-9.35265
18.49244,0.66364,-1.17959,-9.58758
18.50248,0.67546,-0.91384,-9.72001
18.51252,0.78096,-0.61845,-9.72016
18.52256,0.89334,-0.42138,-9.66105
18.5326,1.13096,-0.35449,-9.63068
18.54264,1.33357,-0.38921,-9.62903
18.55268,1.33746,-0.4974,-9.64579
18.56272,1.17585,-0.75208,-9.83957
18.57276,0.98761,-1.03729,-10.08019
18.5828,0.90366,-1.20039,-10.18628
18.59284,0.83827,-1.28539,-10.12792
18.60288,0.76884,-1.29047,-10.02153
18.61292,0.93823,-1.28464,-9.84735
18.62296,1.19471,-1.27761,-9.63277
18.633,1.34599,-1.26638,-9.60314
18.64303,1.44355,-1.25546,-9.74365
18.65307,1.56805,-1.23601,-9.93788
18.66311,1.64018,-1.22658,-9.97484
18.67315,1.74881,-1.22164,-9.87563
18.68319,1.92569,-1.26908,-9.67272
18.69323,2.04929,-1.3026,-9.58145
18.70327,2.11049,-1.34614,-9.6416
18.71331,2.10256,-1.39283,-9.84481
18.72335,2.01622,-1.47333,-10.04637
18.73339,1.89965,-1.50416,-10.08019
18.74343,1.8784,-1.49129,-9.93309
18.75347,1.97252,-1.4648,-9.60015
18.76351,2.11887,-1.48515,-9.37091
18.77355,2.32148,-1.58751,-9.35564
18.78359,2.33973,-1.72338,-9.38273
18.79362,2.21718,-1.85655,-9.43719
18.80366,2.05602,-1.97956,-9.47356
18.8137,1.85551,-2.09927,-9.47625
18.82374,1.70991,-2.166,-9.4773
18.83378,1.71141,-2.1265,-9.66704
18.84382,1.79805,-1.95457,-9.92022
18.85386,1.82513,-1.7129,-10.21696
18.8639,1.86329,-1.56132,-10.54631
18.87394,1.80149,-1.53812,-10.70313
18.88398,1.59289,-1.60456,-10.63534
18.89402,1.33372,-1.68013,-10.39607
18.90406,1.18543,-1.79954,-10.04891
18.9141,1.21955,-1.9188,-9.7661
18.92414,1.23152,-2.0225,-9.59387
18.93418,1.28808,-2.07398,-9.66629
18.94421,1.26474,-2.10211,-9.827
18.95425,1.03325,-2.15658,-9.82116
18.96429,0.85338,-2.21374,-9.70145
18.97433,0.81927,-2.23244,-9.414
18.98437,0.87299,-2.17483,-9.13149
18.99441,0.96337,-1.96714,-8.93112
19.00445,1.07141,-1.72098,-8.79091
19.01449,1.04701,-1.61893,-8.58366
19.02453,0.83543,-1.62506,-8.5877
19.03457,0.43709,-1.77754,-8.77744
19.04461,-0.05791,-1.99676,-8.99666
19.05465,-0.45774,-2.24292,-9.09542
19.06469,-0.33758,-2.56718,-9.1053
19.07473,0.02993,-2.74106,-9.0031
19.08476,0.20994,-2.53651,-8.76622
19.0948,0.29239,-2.09597,-8.76532
19.10484,0.29434,-1.6511,-9.01731
19.11488,0.15577,-1.30424,-9.25898
19.12492,-0.06225,-1.09355,-9.52159
19.13496,-0.33534,-1.02607,-9.68574
19.145,-0.56069,-1.02801,-9.71477
19.15504,-0.78784,-1.10492,-9.76176
19.16508,-1.01469,-1.24274,-9.94162
19.17512,-1.18857,-1.39687,-10.15875
19.18516,-1.32998,-1.47902,-10.30315
19.1952,-1.46525,-1.4856,-10.34145
19.20524,-1.6107,-1.57209,-10.35103
19.21528,-1.78308,-1.63853,-10.29582
19.22532,-1.92075,-1.65335,-10.25871
19.23535,-1.95127,-1.61474,-10.16892
19.24539,-1.87077,-1.53259,-10.06642
19.25543,-1.7771,-1.46211,-9.9117
19.26547,-1.71739,-1.52241,-9.72091
19.27551,-1.76513,-1.74058,-9.58474
19.28555,-1.80448,-1.93781,-9.5569
19.29559,-1.70228,-2.00619,-9.55421
19.30563,-1.55204,-1.89815,-9.53955
19.31567,-1.44266,-1.71694,-9.53491
19.32571,-1.3439,-1.55997,-9.58878
19.33575,-1.21895,-1.46331,-9.70265
19.34579,-1.1983,-1.50236,-9.75473
19.35583,-1.32325,-1.66457,-9.84002
19.36587,-1.43742,-1.78398,-9.90571
19.3759,-1.39313,-1.86793,-9.83703
19.38594,-1.29676,-1.84802,-9.68829
19.39598,-1.10717,-1.77201,-9.39664
19.40602,-0.86461,-1.71874,-9.18401
19.41606,-0.65212,-1.65888,-9.11263
19.4261,-0.54528,-1.58975,-9.19254
19.43614,-0.44068,-1.5673,-9.42073
19.44618,-0.37305,-1.53064,-9.56843
19.45622,-0.27339,-1.54635,-9.60614
19.46626,-0.14305,-1.5881,-9.56139
19.4763,-0.05507,-1.55369,-9.55765
19.48634,0.06644,-1.41422,-9.66838
19.49638,0.17687,-1.32025,-9.81009
19.50642,0.19498,-1.30813,-9.80665
19.51646,0.16774,-1.30738,-9.74335
19.52649,0.25408,-1.29481,-9.66001
19.53653,0.43081,-1.29511,-9.61077
19.54657,0.58838,-1.30185,-9.65971
19.55661,0.68699,-1.22538,-9.69083
19.56665,0.69941,-1.16807,-9.66644
19.57669,0.61247,-1.19396,-9.64938
19.58673,0.45161,-1.28509,-9.65596
19.59677,0.30481,-1.40944,-9.66689
19.60681,0.23942,-1.50969,-9.62095
19.61685,0.26785,-1.5884,-9.54463
19.62689,0.34417,-1.61504,-9.49346
19.63693,0.45146,-1.58122,-9.4963
19.64697,0.49949,-1.49922,-9.54179
19.65701,0.46373,-1.42979,-9.60269
19.66704,0.37469,-1.4259,-9.71462
19.67708,0.33848,-1.4648,-9.82311
19.68712,0.32456,-1.47782,-9.92097
19.69716,0.31873,-1.47767,-9.9711
19.7072,0.28775,-1.46136,-9.97529
19.71724,0.28446,-1.40644,-9.9696
19.72728,0.32845,-1.34898,-9.99609
19.73732,0.4136,-1.30469,-9.96781
19.74736,0.44158,-1.29556,-9.90362
19.7574,0.43709,-1.33971,-9.85483
19.76744,0.43574,-1.36963,-9.83882
19.77748,0.43874,-1.40166,-9.82102
19.78752,0.47435,-1.37502,-9.75907
19.79756,0.48587,-1.3418,-9.65342
19.8076,0.49844,-1.33162,-9.56484
19.81763,0.54468,-1.35826,-9.50633
19.82767,0.5375,-1.42605,-9.49525
19.83771,0.51326,-1.50535,-9.50513
19.84775,0.48288,-1.54935,-9.50304
19.85779,0.4754,-1.52406,-9.4972
19.86783,0.53884,-1.47722,-9.53551
19.87787,0.58254,-1.44191,-9.62469
19.88791,0.60753,-1.41812,-9.69996
19.89795,0.60888,-1.38026,-9.6835
19.90799,0.5764,-1.34599,-9.61586
19.91803,0.56922,-1.3421,-9.55885
19.92807,0.55575,-1.4027,-9.54463
19.93811,0.53555,-1.47228,-9.55421
19.94815,0.52583,-1.52002,-9.54104
19.95819,0.51939,-1.49937,-9.52802
19.96822,0.54333,-1.54561,-9.55616
19.97826,0.56024,-1.5691,-9.581
19.9883,0.57341,-1.51703,-9.6419
19.99834,0.54737,-1.43622,-9.75158
20.00838,0.50982,-1.34479,-9.85947
20.01842,0.51894,-1.28673,-9.92786
20.02846,0.51206,-1.29362,-9.95255
20.0385,0.49874,-1.32714,-9.97544
20.04854,0.45909,-1.34509,-9.9705
20.05858,0.44517,-1.33911,-9.97484
20.06862,0.48213,-1.35871,-10.10967
20.07866,0.50159,-1.30693,-10.16773
20.0887,0.48902,-1.20144,-10.15082
20.09873,0.49964,-1.11779,-10.05191
20.10877,0.55366,-1.10058,-9.89105
20.11881,0.6195,-1.11525,-9.76744
20.12885,0.65915,-1.17076,-9.69891
20.13889,0.67217,-1.18543,-9.57531
20.14893,0.68833,-1.1579,-9.4538
20.15897,0.7018,-1.09445,-9.48628
20.16901,0.71691,-1.04028,-9.68993
20.17905,0.7018,-0.99748,-9.95449
20.18909,0.64269,-1.01739,-10.11071
20.19913,0.577,-1.04432,-10.13346
20.20917,0.53061,-1.0325,-9.9286
20.21921,0.53211,-1.03878,-9.73048
20.22925,0.58359,-1.10881,-9.62424
20.23928,0.64883,-1.14892,-9.52354
20.24932,0.65736,-1.12123,-9.43809
20.25936,0.66783,-1.12782,-9.3926
20.2694,0.64628,-1.16867,-9.40697
20.27944,0.59915,-1.22209,-9.37345
20.28948,0.58419,-1.26773,-9.28412
20.29952,0.59436,-1.28299,-9.25434
20.30956,0.61247,-1.2598,-9.28621
20.3196,0.62953,-1.24484,-9.36761
20.32964,0.62324,-1.1959,-9.43495
20.33968,0.64494,-1.17555,-9.54778
20.34972,0.62369,-1.1968,-9.60554
20.35976,0.59915,-1.21655,-9.6003
20.3698,0.62668,-1.20339,-9.56439
20.37983,0.68369,-1.16732,-9.52339
20.38987,0.70853,-1.12363,-9.53476
20.39991,0.72829,-1.10358,-9.64624
20.40995,0.67142,-1.10702,-9.77852
20.41999,0.55156,-1.13859,-9.92666
20.43003,0.45894,-1.15236,-10.06088
20.44007,0.34701,-1.14114,-10.22938
20.45011,0.22565,-1.14802,-10.42525
20.46015,0.09667,-1.1543,-10.6955
20.47019,-0.02289,-1.16598,-10.9403
20.48023,-0.07183,-1.15026,-11.17134
20.49027,-0.13512,-1.15251,-11.52958
20.50031,-0.21473,-1.19276,-11.97864
20.51035,-0.36512,-1.22209,-12.33223
20.52039,-0.59406,-1.23376,-12.62537
20.53042,-0.81508,-1.31606,-12.76663
20.54046,-0.92715,-1.37622,-12.68448
20.5505,-0.83363,-1.37562,-12.48816
20.56054,-0.68414,-1.39103,-12.30246
20.57058,-0.56773,-1.47797,-12.2429
20.58062,-0.61576,-1.62477,-12.14997
20.59066,-0.69327,-1.76662,-11.87195
20.6007,-0.65631,-1.80298,-11.51357
20.61074,-0.4754,-1.70961,-11.27908
20.62078,-0.20934,-1.57389,-11.27474
20.63082,-0.05926,-1.38654,-11.59347
20.64086,-0.31065,-1.25336,-12.201
20.6509,-0.53106,-1.17989,-12.81826
20.66093,-0.67247,-1.14982,-13.08192
20.67097,-0.70659,-1.18648,-13.06351
20.68101,-0.67427,-1.15026,-12.88933
20.69105,-0.48557,-1.01783,-12.82559
20.70109,-0.33085,-0.90276,-12.8422
20.71113,-0.34836,-0.80804,-12.99558
20.72117,-0.52732,-0.79622,-13.04795
20.73121,-0.75881,-0.8658,-12.93093
20.74125,-0.80505,-0.80685,-12.59964
20.75129,-0.49395,-0.41958,-12.05316
20.76133,-0.03157,0.02319,-11.55906
20.77137,0.3319,0.35479,-11.24048
20.78141,0.48872,0.48348,-10.91427
20.79145,0.40163,0.4133,-10.80383
20.80148,0.17418,0.29134,-10.8384
20.81152,0.03217,0.26052,-11.07408
20.82156,-0.05073,0.4353,-11.16521
20.8316,0.12585,0.71213,-11.17613
20.84164,0.39055,1.00841,-10.93148
20.85168,0.59586,1.22553,-10.49753
20.86172,0.64494,1.29302,-9.991
20.87176,0.71976,1.36455,-9.50902
20.8818,1.00123,1.43787,-9.06654
20.89184,1.30918,1.41378,-8.53174
20.90188,1.53049,1.157,-8.07908
20.91192,1.6499,0.65631,-7.98706
20.92196,1.47079,0.07362,-8.44525
20.932,1.0943,-0.13901,-9.15243
20.94203,0.81193,0.12225,-9.60868
20.95207,0.80251,0.50383,-9.72091
20.96211,0.80655,0.63027,-9.29713
20.97215,0.86281,0.30646,-8.50256
20.98219,0.62818,-0.05671,-7.81961
20.99223,0.33549,-0.08335,-7.62209
21.00227,0.47256,-0.0832,-7.82859
21.01231,0.68624,-0.019,-8.16483
21.02235,0.867,-0.07213,-8.42744
21.03239,0.93,-0.16191,-8.49223
21.04243,0.87164,-0.12405,-8.45393
21.05247,0.80595,0.00165,-8.39512
21.06251,0.88256,0.17373,-8.24174
21.07254,1.04282,0.33668,-8.10722
21.08258,1.1552,0.42018,-7.88201
21.09262,1.12782,0.34866,-7.65471
21.10266,1.02562,0.16625,-7.46168
21.1127,0.98731,-0.09352,-7.32701
21.12274,0.97564,-0.24496,-7.30202
21.13278,0.98851,-0.27833,-7.37564
21.14282,0.95065,-0.29583,-7.4117
21.15286,0.85682,-0.39624,-7.5962
21.1629,0.72275,-0.47989,-7.69706
21.17294,0.58254,-0.54618,-7.7436
21.18298,0.52313,-0.55231,-7.80899
21.19302,0.49141,-0.5987,-7.87004
21.20306,0.52059,-0.61351,-8.03
21.21309,0.53136,-0.57341,-8.05724
21.22313,0.61247,-0.44338,-7.98092
21.23317,0.76644,-0.28132,-7.95488
21.24321,0.89812,-0.07946,-7.79986
21.25325,1.08008,0.07901,-7.65546
21.26329,1.24858,0.09906,-7.65636
21.27333,1.28045,0.07317,-7.75587
21.28337,1.26504,0.0612,-7.94501
21.29341,1.25965,0.13692,-8.13669
21.30345,1.27611,0.21817,-8.22453
21.31349,1.24828,0.26172,-8.37342
21.32353,1.22044,0.1875,-8.56002
21.33357,1.16807,0.1239,-8.6112
21.3436,1.12827,0.12914,-8.59967
21.35365,1.1139,0.1655,-8.55658
21.36368,1.06871,0.11851,-8.5045
21.37372,1.00152,0.0621,-8.41158
21.38376,0.89753,-0.03337,-8.38599
21.3938,0.77782,-0.1667,-8.3812
21.40384,0.64015,-0.2695,-8.39138
21.41388,0.53705,-0.34955,-8.43522
21.42392,0.47585,-0.32875,-8.50989
21.43396,0.42961,-0.31409,-8.58486
21.444,0.40836,-0.30317,-8.59264
21.45404,0.38771,-0.34207,-8.52246
21.46408,0.41375,-0.36407,-8.40739
21.47412,0.4329,-0.36706,-8.33018
21.48415,0.36916,-0.4353,-8.28618
21.49419,0.25917,-0.52717,-8.30997
21.50423,0.19124,-0.65437,-8.31581
21.51427,0.20291,-0.73951,-8.26104
21.52431,0.16266,-0.76629,-8.13041
21.53435,0.13467,-0.83199,-8.05604
21.54439,0.18151,-0.82884,-8.16528
21.55443,0.19498,-0.80221,-8.3197
21.56447,0.2044,-0.75866,-8.41816
21.57451,0.2466,-0.67322,-8.4032
21.58455,0.29598,-0.6174,-8.41622
21.59459,0.29598,-0.57177,-8.45333
21.60463,0.25842,-0.58089,-8.5259
21.61467,0.22461,-0.65616,-8.51977
21.6247,0.19543,-0.66304,-8.48385
21.63474,0.20725,-0.60094,-8.40634
21.64478,0.19453,-0.57521,-8.38973
21.65482,0.15398,-0.55097,-8.39108
21.66486,0.11283,-0.57625,-8.37716
21.6749,0.09083,-0.7033,-8.26134
21.68494,0.09532,-0.74041,-7.99992
21.69498,0.03786,-0.7009,-7.6818
21.70502,-0.17373,-0.82061,-7.46138
21.71506,-0.37559,-1.02068,-7.29648
21.7251,-0.41824,-1.07245,-7.17408
21.73514,-0.34327,-0.9906,-7.05631
21.74518,-0.15203,-0.85024,-6.91236
21.75522,-0.01721,-0.73068,-6.69254
21.76525,-0.01481,-0.65047,-6.42484
21.77529,-0.09711,-0.76001,-6.16701
21.78533,-0.1432,-0.82271,-6.02516
21.79537,-0.15757,-0.73517,-5.87253
21.80541,-0.14081,-0.54827,-5.91024
21.81545,-0.07646,-0.36482,-6.10387
21.82549,-0.07048,-0.1652,-6.38578
21.83553,-0.15981,-0.02798,-6.66576
21.84557,-0.26396,0.10669,-6.88288
21.85561,-0.33728,0.54857,-6.84712
21.86565,-0.30212,0.63042,-6.90607
21.87569,-0.27488,0.2062,-6.74521
21.88572,-0.21054,0.02783,-6.08127
21.89576,-0.16759,-0.15263,-5.43918
21.9058,0.00808,-0.48872,-5.47928
21.91584,0.24451,-0.94825,-6.72621
21.92588,0.3711,-1.41198,-8.41188
21.93592,0.15921,-1.85132,-9.71253
21.94596,0.00314,-2.29035,-10.37153
21.956,0.00778,-2.67238,-10.47942
21.96604,0.01691,-3.00308,-10.04502
21.97608,-0.03457,-2.77742,-8.32374
21.98612,0.12151,-2.82022,-7.80255
21.99616,0.01437,-3.42236,-8.76742
22.0062,-0.34387,-4.15379,-10.06448
22.01623,-0.69387,-4.68022,-10.97846
22.02627,-0.80505,-5.03979,-11.25439
22.03631,-0.50203,-5.29238,-10.82164
22.04635,0.19019,-5.35553,-10.22504
22.05639,0.92596,-5.22789,-10.19511
22.06643,1.529,-5.00972,-10.80219
22.07647,1.90908,-4.79978,-11.48109
22.08651,2.04151,-4.57981,-12.16973
22.09655,2.00469,-4.32513,-12.78713
22.10659,1.88917,-3.84299,-13.01144
22.11663,1.72682,-3.20898,-13.16108
22.12667,1.73206,-2.66639,-13.12935
22.13671,1.71978,-2.31145,-12.97448
22.14674,1.5679,-2.33031,-12.95727
22.15678,1.33372,-2.57257,-13.00186
22.16682,1.1552,-2.83069,-12.97971
22.17686,1.10043,-2.96896,-12.91642
22.1869,1.15056,-2.93245,-12.73745
22.19694,1.21087,-2.80181,-12.42291
22.20698,1.21147,-2.70186,-12.138
22.21702,1.0925,-2.6634,-12.0174
22.22706,0.88301,-2.69363,-12.16015
22.2371,0.63312,-2.75213,-12.3463
22.24714,0.34162,-2.85045,-12.37548
22.25718,0.0832,-2.92108,-12.2631
22.26722,-0.01047,-2.92886,-11.99884
22.27725,0.03023,-2.83174,-11.602
22.28729,0.3283,-2.65263,-11.23255
22.29733,0.7018,-2.42996,-11.08201
22.30737,0.99195,-2.25369,-11.13169
22.31741,1.01978,-2.14191,-11.18362
22.32745,0.88436,-2.06036,-11.22506
22.33749,0.69971,-2.06305,-11.28582
22.34753,0.45385,-2.10301,-11.30692
22.35757,0.29823,-2.20356,-11.22626
22.36761,0.2062,-2.34063,-11.07273
22.37765,0.19169,-2.48952,-10.85052
22.38769,0.23733,-2.56958,-10.57683
22.39773,0.25887,-2.48339,-10.37662
22.40776,0.27025,-2.37565,-10.31377
22.4178,0.22924,-2.31355,-10.30973
22.42784,0.13602,-2.24411,-10.28609
22.43788,0.09891,-2.20177,-10.28729
22.44792,0.09337,-2.15179,-10.29971
22.45796,0.09876,-2.14087,-10.23895
22.468,0.1248,-2.13817,-10.16847
22.47804,0.21398,-2.15942,-10.18419
22.48808,0.39325,-1.99108,-10.20095
22.49812,0.47226,-1.7325,-10.17835
22.50816,0.55815,-1.61474,-10.20499
22.5182,0.52822,-1.589,-10.17027
22.52824,0.4953,-1.66397,-10.12628
22.53827,0.46926,-1.80702,-10.05056
22.54831,0.44697,-1.94813,-9.93579
22.55835,0.43335,-1.94873,-9.89553
22.56839,0.45639,-1.84698,-9.90362
22.57843,0.50473,-1.78293,-9.83254
22.58847,0.59122,-1.75061,-9.66584
22.59851,0.6828,-1.69958,-9.47535
22.60855,0.70554,-1.63928,-9.36911
22.61859,0.67487,-1.56102,-9.37824
22.62863,0.62115,-1.51089,-9.39141
22.63867,0.5984,-1.50116,-9.38916
22.64871,0.62354,-1.4654,-9.2681
22.65875,0.6403,-1.46585,-9.22636
22.66878,0.64913,-1.51987,-9.23533
22.67882,0.61845,-1.60172,-9.24416
22.68886,0.58763,-1.69809,-9.25299
22.6989,0.56743,-1.74358,-9.22007
22.70894,0.52029,-1.75061,-9.16635
22.71898,0.48572,-1.76662,-9.18371
22.72902,0.46133,-1.71859,-9.22067
22.73906,0.45235,-1.64542,-9.26362
22.7491,0.42168,-1.5878,-9.30506
22.75914,0.41016,-1.53678,-9.3507
22.76918,0.37439,-1.57464,-9.477
22.77922,0.30661,-1.65948,-9.61032
22.78926,0.26321,-1.76318,-9.72031
22.79929,0.27758,-1.84354,-9.82042
22.80933,0.2285,-1.79131,-9.88102
22.81937,0.2475,-1.6496,-9.95823
22.82941,0.34641,-1.61249,-9.98292
22.83945,0.47016,-1.57538,-9.96123
22.84949,0.57177,-1.52975,-9.91259
22.85953,0.56623,-1.43697,-9.83807
22.86957,0.45625,-1.42694,-9.79288
22.87961,0.31379,-1.46046,-9.77163
22.88965,0.23089,-1.56252,-9.8258
22.89969,0.20381,-1.69539,-9.85857
22.90973,0.23119,-1.78742,-9.81892
22.91977,0.28192,-1.82259,-9.7459
22.9298,0.33205,-1.76228,-9.69876
22.93984,0.28491,-1.68701,-9.7655
22.94988,0.21174,-1.6306,-9.88865
22.95992,0.14694,-1.60591,-9.96931
22.96996,0.10475,-1.62387,-9.92965
22.98,0.09442,-1.65574,-9.77403
22.99004,0.05671,-1.70826,-9.56663
23.00008,0.02379,-1.66068,-9.4755
23.01012,0.00658,-1.68881,-9.43091
23.02016,-0.00943,-1.75989,-9.40128
23.0302,0.03053,-1.83456,-9.40397
23.04024,0.09068,-1.82528,-9.42373
23.05027,0.1022,-1.734,-9.50318
23.06031,0.13572,-1.62566,-9.69442
23.07035,0.15562,-1.5685,-9.84421
23.08039,0.17208,-1.53453,-9.8909
23.09043,0.21413,-1.51239,-9.86351
23.10047,0.20036,-1.46929,-9.80066
23.11051,0.15428,-1.5058,-9.72525
23.12055,0.13183,-1.57419,-9.65252
23.13059,0.10968,-1.62881,-9.58414
23.14063,0.08215,-1.67834,-9.58848
23.15067,0.12944,-1.72233,-9.6413
23.16071,0.18076,-1.75256,-9.641
23.17075,0.28671,-1.76453,-9.60988
23.18078,0.3726,-1.6936,-9.58174
23.19082,0.4124,-1.59753,-9.59132
23.20086,0.35255,-1.47333,-9.63546
23.2109,0.29239,-1.42141,-9.75607
23.22094,0.31753,-1.47109,-9.76954
23.23098,0.43275,-1.58406,-9.69846
23.24102,0.54274,-1.6523,-9.62619
23.25106,0.61247,-1.63255,-9.59237
23.2611,0.66155,-1.53079,-9.65611
23.27114,0.7012,-1.50057,-9.71941
23.28118,0.79487,-1.47737,-9.75488
23.29122,0.89094,-1.48171,-9.73437
23.30125,0.91099,-1.48186,-9.75981
23.31129,0.89453,-1.45313,-9.82371
23.32133,0.83543,-1.48441,-9.89329
23.33137,0.77198,-1.56341,-9.91214
23.34141,0.72275,-1.65544,-9.92067
23.35145,0.66274,-1.74522,-9.87099
23.36149,0.63596,-1.8181,-9.88297
23.37153,0.61785,-1.84533,-9.85394
23.38157,0.61606,-1.79011,-9.81249
23.39161,0.64,-1.67325,-9.72674
23.40165,0.69222,-1.56461,-9.67317
23.41169,0.69522,-1.49862,-9.59835
23.42173,0.67651,-1.54127,-9.50603
23.43176,0.61037,-1.64541,-9.4351
23.4418,0.54348,-1.76213,-9.36327
23.45184,0.46418,-1.80927,-9.36746
23.46188,0.45475,-1.81555,-9.43989
23.47192,0.45924,-1.83755,-9.52398
23.48196,0.45654,-1.85476,-9.58174
23.492,0.40462,-1.89396,-9.64025
23.50204,0.33758,-1.9423,-9.70774
23.51208,0.24406,-1.97611,-9.70116
23.52212,0.17552,-1.95921,-9.61856
23.53216,0.18839,-1.91716,-9.56005
23.5422,0.28282,-1.83875,-9.55661
23.55224,0.40282,-1.77335,-9.54359
23.56227,0.44622,-1.7141,-9.57277
23.57231,0.4341,-1.71215,-9.66045
23.58235,0.35913,-1.73206,-9.73228
23.59239,0.2695,-1.75256,-9.82146
23.60243,0.25349,-1.76318,-9.86456
23.61247,0.27219,-1.82393,-9.86306
23.62251,0.30721,-1.88768,-9.8255
23.63255,0.37335,-1.93646,-9.7661
23.64259,0.43978,-1.94723,-9.6814
23.65263,0.44308,-1.88289,-9.5572
23.66267,0.34925,-1.82902,-9.52174
23.67271,0.24346,-1.76183,-9.70849
23.68274,0.19094,-1.68103,-9.95943
23.69278,0.09801,-1.64631,-10.18658
23.70282,0.02679,-1.62357,-10.29656
23.71286,0.06689,-1.66187,-10.23282
23.7229,0.1049,-1.72742,-10.06717
23.73294,0.16655,-1.7952,-9.87144
23.74298,0.19632,-1.82752,-9.72809
23.75302,0.19977,-1.85236,-9.70101
23.76306,0.14605,-1.89336,-9.67617
23.7731,0.07257,-1.92254,-9.6015
23.78314,-0.00913,-1.94424,-9.47475
23.79318,-0.08455,-2.01008,-9.40802
23.80321,-0.13737,-2.02325,-9.39634
23.81325,-0.17986,-2.01532,-9.47041
23.82329,-0.18854,-2.0246,-9.64579
23.83333,-0.20051,-1.99751,-9.77627
23.84337,-0.24331,-1.94619,-9.86037
23.85341,-0.29883,-1.94604,-9.86411
23.86345,-0.32322,-1.90743,-9.78375
23.87349,-0.32232,-1.86329,-9.66809
23.88353,-0.26501,-1.83112,-9.53611
23.89357,-0.17313,-1.76108,-9.38766
23.90361,-0.09741,-1.64018,-9.26347
23.91365,-0.05222,-1.5495,-9.23174
23.92369,-0.09711,-1.55982,-9.26212
23.93373,-0.26725,-1.68133,-9.34202
23.94376,-0.49889,-1.80702,-9.37524
23.9538,-0.63461,-1.82693,-9.45605
23.96384,-0.62728,-1.76168,-9.59461
23.97388,-0.59361,-1.68447,-9.6829
23.98392,-0.56638,-1.57838,-9.68679
23.99396,-0.6177,-1.54815,-9.61227
24.004,-0.66289,-1.60007,-9.57501
24.01404,-0.7006,-1.6713,-9.56888
24.02408,-0.72634,-1.71874,-9.57202
24.03412,-0.71198,-1.72622,-9.55915
24.04416,-0.62788,-1.69255,-9.46548
24.0542,-0.5179,-1.63913,-9.33439
24.06423,-0.45445,-1.59379,-9.28097
24.07427,-0.39474,-1.58765,-9.36178
24.08431,-0.38487,-1.63973,-9.43734
24.09435,-0.40716,-1.71664,-9.46667
24.10439,-0.41135,-1.75929,-9.46428
24.11443,-0.36706,-1.82468,-9.45919
24.12447,-0.34043,-1.82378,-9.44243
24.13451,-0.2496,-1.77096,-9.4345
24.14455,-0.15787,-1.73101,-9.41684
24.15459,-0.13363,-1.73191,-9.40278
24.16463,-0.12839,-1.753,-9.38452
24.17467,-0.11208,-1.77141,-9.39021
24.1847,-0.05118,-1.80598,-9.4143
24.19474,-0.04504,-1.857,-9.39889
24.20478,-0.05761,-1.90144,-9.37524
24.21482,-0.0826,-1.87137,-9.34562
24.22486,-0.09412,-1.80568,-9.3332
24.2349,-0.10879,-1.69794,-9.36612
24.24494,-0.11911,-1.59648,-9.43585
24.25498,-0.13931,-1.52989,-9.54808
24.26502,-0.17867,-1.6095,-9.65641
24.27506,-0.27743,-1.72861,-9.71971
24.2851,-0.32187,-1.81765,-9.70789
24.29514,-0.29194,-1.85551,-9.61631
24.30517,-0.227,-1.86149,-9.50573
24.31521,-0.16011,-1.86583,-9.42732
24.32525,-0.08499,-1.88484,-9.3932
24.33529,-0.06015,-1.91701,-9.41909
24.34533,-0.03636,-1.93526,-9.50244
24.35537,-0.04235,-1.95801,-9.58608
24.36541,0.01347,-1.93945,-9.67676
24.37545,0.07632,-1.86493,-9.70475
24.38549,0.14679,-1.80179,-9.70445
24.39553,0.20919,-1.74537,-9.7043
24.40557,0.24346,-1.7156,-9.73856
24.41561,0.26396,-1.70362,-9.83927
24.42565,0.27129,-1.71619,-9.90436
24.43568,0.29838,-1.68642,-9.9506
24.44572,0.3319,-1.62462,-9.97799
24.45576,0.35793,-1.57793,-9.9904
24.4658,0.3491,-1.56925,-9.96886
24.47584,0.35973,-1.56805,-9.91394
24.48588,0.3307,-1.57314,-9.82102
24.49592,0.29972,-1.61758,-9.69397
24.50596,0.31274,-1.66352,-9.57067
24.516,0.31663,-1.71455,-9.49271
24.52604,0.32307,-1.75704,-9.44168
24.53608,0.28057,-1.76438,-9.42044
24.54612,0.27144,-1.7744,-9.41265
24.55615,0.29194,-1.75944,-9.436
24.56619,0.29928,-1.73026,-9.45829
24.57623,0.2894,-1.72353,-9.46548
24.58627,0.25513,-1.71993,-9.48358
24.59631,0.21817,-1.78592,-9.48463
24.60635,0.17732,-1.83785,-9.46697
24.61639,0.15173,-1.86014,-9.46233
24.62643,0.12809,-1.8576,-9.44468
24.63647,0.1245,-1.83156,-9.46488
24.64651,0.15832,-1.7958,-9.46054
24.65655,0.18405,-1.76662,-9.43495
24.66659,0.22341,-1.72592,-9.46682
24.67662,0.25887,-1.69779,-9.52518
24.68666,0.23463,-1.6725,-9.57232
24.6967,0.19333,-1.64287,-9.65462
24.70674,0.1257,-1.62851,-9.70175
24.71678,0.11268,-1.64646,-9.70699
24.72682,0.12614,-1.65379,-9.61422
24.73686,0.11791,-1.69061,-9.50214
24.7469,0.13677,-1.69046,-9.44138
24.75694,0.1643,-1.70781,-9.44468
24.76698,0.18884,-1.68372,-9.50229
24.77702,0.17478,-1.62581,-9.55167
24.78706,0.15742,-1.58137,-9.52234
24.79709,0.11672,-1.53274,-9.47969
24.80713,0.10175,-1.52211,-9.43211
24.81717,0.0829,-1.53693,-9.37061
24.82721,0.0844,-1.53827,-9.41041
24.83725,0.05716,-1.52705,-9.45904
24.84729,0.02529,-1.52316,-9.52234
24.85733,-0.02529,-1.5673,-9.56498
24.86737,-0.03217,-1.62491,-9.60584
24.87741,-0.04384,-1.66292,-9.59626
24.88745,-0.05252,-1.67804,-9.56738
24.89748,-0.03846,-1.70332,-9.51935
24.90752,-0.0226,-1.75435,-9.54703
24.91756,0.01257,-1.76737,-9.57456
24.9276,0.01407,-1.76228,-9.65941
24.93764,0.02619,-1.75719,-9.77074
24.94768,0.01915,-1.74029,-9.89763
24.95772,0.02948,-1.75645,-10.08677
24.96776,0.00823,-1.78024,-10.39143
24.9778,-0.03277,-1.76004,-10.66542
24.98784,-0.0826,-1.66232,-10.89781
24.99788,-0.16535,-1.63015,-11.11403
25.00792,-0.25334,-1.69764,-11.397
25.01795,-0.39534,-1.80104,-11.79279
25.02799,-0.5773,-1.91027,-12.41438
25.03803,-0.78216,-1.9411,-13.01323
25.04807,-0.949,-1.942,-13.49417
25.05811,-1.10956,-1.86598,-13.61702
25.06815,-1.2803,-1.75226,-13.54998
25.07819,-1.4018,-1.76513,-13.48878
25.08823,-1.55054,-1.79864,-13.39586
25.09827,-1.66173,-1.80598,-13.28288
25.10831,-1.73265,-1.82184,-13.20522
25.11835,-1.73475,-1.84488,-13.16257
25.12839,-1.68103,-1.87032,-13.06351
25.13842,-1.64676,-1.76079,-12.89951
25.14846,-1.68282,-1.58945,-13.2534
25.1585,-1.53244,-1.53977,-14.34381
25.16854,-1.2601,-1.49563,-15.21934
25.17858,-1.42844,-1.55294,-15.46819
25.18862,-1.64781,-1.66068,-15.40833
25.19866,-1.6312,-1.66966,-15.03274
25.2087,-1.42709,-1.54142,-14.43
25.21874,-1.14563,-1.45298,-13.69214
25.22878,-0.96935,-1.5465,-12.88021
25.23882,-1.0946,-1.86568,-11.99824
25.24886,-1.46316,-2.35784,-11.29016
25.25889,-1.61055,-2.63781,-10.83765
25.26893,-1.5281,-2.67537,-10.68427
25.27897,-1.10492,-2.28167,-10.7133
25.28901,-0.60843,-1.72412,-10.76807
25.29905,-0.40043,-1.33133,-11.01647
25.30909,-0.53017,-1.08562,-11.4799
25.31913,-0.83139,-0.86161,-11.78202
25.32917,-1.14473,-0.58748,-11.72007
25.33921,-1.35347,-0.44951,-11.37081
25.34925,-1.40016,-0.49844,-10.81491
25.35929,-1.33282,-0.70449,-10.35432
25.36933,-1.2164,-0.97324,-9.92397
25.37936,-1.28554,-1.20892,-9.31734
25.3894,-1.29033,-1.42694,-8.87486
25.39944,-1.10477,-1.57823,-8.5687
25.40948,-0.91773,-1.60576,-8.16767
25.41952,-0.70614,-1.47079,-7.64065
25.42956,-0.44787,-1.24304,-7.17048
25.4396,-0.07602,-1.05524,-6.93959
25.44964,0.40956,-0.99584,-6.94618
25.45968,0.82375,-1.18094,-7.49684
25.46972,0.92102,-1.3632,-8.23037
25.47976,0.75253,-1.25202,-8.64741
25.48979,0.44532,-0.84635,-8.70083
25.49983,0.26546,-0.34013,-8.55164
25.50987,0.20949,0.04714,-8.21062
25.51991,0.06554,0.08365,-7.94232
25.52995,0.02963,-0.11462,-8.02147
25.53999,0.05028,-0.23807,-8.16917
25.55003,0.03786,-0.19812,-8.2576
25.56007,0.06764,-0.14455,-8.22453
25.57011,0.164,-0.12435,-8.11036
25.58015,0.1878,-0.20321,-7.95488
25.59019,0.13767,-0.29538,-7.68075
25.60023,0.15532,-0.32726,-7.44223
25.61026,0.25064,-0.36556,-7.23019
25.6203,0.39011,-0.44098,-7.1449
25.63034,0.54962,-0.473,-7.15926
25.64038,0.55201,-0.42692,-7.1416
25.65042,0.48153,-0.35105,-7.10345
25.66046,0.44861,-0.30107,-7.00229
25.6705,0.40761,-0.47704,-6.79804
25.68054,0.20051,-0.81897,-6.51627
25.69058,-0.10175,-1.20219,-6.31441
25.70062,-0.38143,-1.46615,-6.26069
25.71066,-0.46792,-1.37936,-5.99777
25.7207,-0.2475,-1.1338,-5.51579
25.73073,0.00599,-0.96007,-5.09845
25.74077,0.1872,-1.02322,-5.08558
25.75081,0.37948,-1.17346,-5.55904
25.76085,0.57805,-1.13994,-6.08232
25.77089,0.8049,-0.90022,-6.21295
25.78093,0.86326,-0.69163,-6.03055
25.79097,0.74714,-0.62474,-5.81911
25.80101,0.56129,-0.77961,-5.68787
25.81105,0.31244,-1.12258,-5.45115
25.82109,0.07542,-1.42081,-5.13092
25.83113,0.05596,-1.64182,-4.90737
25.84116,0.12944,-1.83471,-4.82327
25.8512,0.24989,-1.91237,-4.92293
25.86124,0.35808,-1.91925,-5.13661
25.87128,0.54124,-1.83516,-5.33144
25.88132,0.65212,-1.76183,-5.43708
25.89136,0.77617,-1.72353,-5.44367
25.9014,0.87314,-1.69524,-5.36346
25.91144,0.90935,-1.63928,-5.29403
25.92148,0.8673,-1.61414,-5.2846
25.93152,0.8049,-1.59633,-5.37902
25.94156,0.83004,-1.5088,-5.4495
25.9516,0.82675,-1.46316,-5.64418
25.96163,0.59511,-1.548,-6.02246
25.97167,0.27144,-1.64018,-6.28987
25.98171,0.06629,-1.68911,-6.214
25.99175,-0.1031,-1.72502,-6.14861
26.00179,-0.26097,-1.66472,-6.16447
26.01183,-0.44592,-1.67863,-6.24692
26.02187,-0.67935,-1.7542,-6.33326
26.03191,-1.12094,-2.10944,-6.34882
26.04195,-1.47992,-2.38896,-6.14427
26.05199,-1.40136,-2.41201,-5.9451
26.06203,-1.13291,-2.1684,-5.80863
26.07206,-0.84396,-1.72218,-5.87432
26.0821,-0.59705,-1.21236,-6.29451
26.09214,-0.34791,-0.69327,-7.00154
26.10218,-0.28581,-0.35449,-7.6384
26.11222,-0.38382,-0.26591,-8.09554
26.12226,-0.38457,-0.11193,-8.27197
26.1323,-0.26935,0.03457,-8.06876
26.14234,-0.15502,0.11088,-7.73986
26.15238,0.0196,0.09891,-7.36277
26.16242,0.24526,0.03157,-7.15178
26.17246,0.55845,-0.07123,-7.43744
26.1825,0.65347,-0.00913,-8.28723
26.19253,0.53615,0.31813,-9.2907
26.20257,0.35958,0.75432,-10.12613
26.21261,0.33624,1.27386,-10.67051
26.22265,0.56832,1.74298,-10.85351
26.23269,0.82959,1.9197,-10.89781
26.24273,0.97683,1.76168,-11.13289
26.25277,0.94077,1.37487,-11.8094
26.26281,0.64599,0.87224,-12.61445
26.27285,0.13348,0.35943,-13.10511
26.28289,-0.29,-0.08484,-13.06351
26.29293,-0.48498,-0.4962,-12.56492
26.30296,-0.48213,-0.86146,-12.10419
26.313,-0.48513,-1.13156,-11.71737
26.32304,-0.39774,-1.36679,-11.54275
26.33308,-0.32875,-1.61264,-11.68266
26.34312,-0.26815,-1.78263,-11.88242
26.35316,-0.02708,-1.6921,-12.08907
26.3632,0.31499,-1.48381,-12.37278
26.37324,0.69761,-1.27835,-12.89771
26.38328,0.98327,-1.00287,-13.40139
26.39332,1.08412,-0.76465,-13.68107
26.40336,1.05734,-0.67801,-13.831
26.4134,0.92581,-0.79113,-13.94937
26.42343,0.64913,-1.04971,-14.05726
26.43347,0.38412,-1.37981,-14.33079
26.44351,0.17732,-1.61968,-14.46158
26.45355,0.06734,-1.61579,-14.35907
26.46359,0.09307,-1.37472,-14.07072
26.47363,0.1242,-1.19501,-14.06549
26.48367,0.01811,-1.15371,-14.35997
26.49371,-0.2053,-1.2372,-14.71402
26.50375,-0.55186,-1.28988,-14.79257
26.51379,-0.76405,-1.19141,-14.64608
26.52383,-0.75492,-0.9071,-14.22171
26.53386,-0.57745,-0.65601,-13.63124
26.5439,-0.31648,-0.48183,-12.99004
26.55394,-0.13213,-0.39998,-12.46466
26.56398,-0.09442,-0.41943,-12.15506
26.57402,-0.21189,-0.58942,-12.0777
26.58406,-0.39549,-0.81777,-12.09087
26.5941,-0.54154,-1.01664,-12.01904
26.60414,-0.62055,-1.1549,-11.74565
26.61418,-0.57805,-1.1986,-11.39715
26.62422,-0.47764,-1.19126,-11.15503
26.63426,-0.44966,-1.15386,-10.85396
26.64429,-0.44457,-1.10283,-10.55798
26.65433,-0.40896,-1.01604,-10.32215
26.66437,-0.34417,-1.00227,-10.2198
26.67441,-0.27698,-1.04043,-10.15815
26.68445,-0.27354,-1.12498,-10.0335
26.69449,-0.22296,-1.19082,-9.91469
26.70453,-0.14769,-1.20862,-9.78944
26.71457,-0.07467,-1.1579,-9.60015
26.72461,-0.02634,-1.04267,-9.46308
26.73465,0.0018,-0.95873,-9.42238
26.74469,0.01526,-0.89379,-9.50603
26.75473,0.01526,-0.86416,-9.61541
26.76476,0.05357,-0.84725,-9.75054
26.7748,0.12031,-0.78859,-9.81054
26.78484,0.19124,-0.72155,-9.77597
26.79488,0.25408,-0.66723,-9.68499
26.80492,0.34881,-0.65706,-9.64953
26.81496,0.42811,-0.67427,-9.72719
26.825,0.44517,-0.68474,-9.764
26.83504,0.46837,-0.7238,-9.65372
26.84508,0.45879,-0.80655,-9.4357
26.85512,0.49246,-0.89798,-9.22471
26.86516,0.52283,-0.97923,-9.11502
26.87519,0.58044,-1.0512,-9.17817
26.88523,0.62608,-1.09639,-9.34577
26.89527,0.5975,-1.10268,-9.49136
26.90531,0.51864,-1.0304,-9.50019
26.91535,0.44442,-0.97923,-9.44273
26.92539,0.46462,-0.97758,-9.43256
26.93543,0.45101,-1.01559,-9.46398
26.94547,0.39025,-1.02756,-9.51201
26.95551,0.34357,-0.98252,-9.51216
26.96555,0.40776,-0.97459,-9.5186
26.97558,0.50383,-0.98701,-9.52877
26.98562,0.54318,-1.01155,-9.53162
26.99566,0.48722,-1.0548,-9.57351
27.0057,0.36347,-1.10672,-9.77552
27.01574,0.23523,-1.09625,-9.92771
27.02578,0.13827,-1.02771,-9.89179
27.03582,0.09457,-1.00182,-9.75637
27.04586,0.05148,-1.04597,-9.54778
27.0559,-0.00584,-1.10537,-9.38961
27.06594,-0.07452,-1.15071,-9.33709
27.07598,-0.06135,-1.15505,-9.41909
27.08601,-0.00359,-1.11585,-9.4767
27.09605,0.07198,-1.07829,-9.49825
27.10609,0.1245,-1.02397,-9.56603
27.11613,0.0811,-0.98252,-9.68245
27.12617,-0.0187,-0.95484,-9.77986
27.13621,-0.12195,-0.99314,-9.87234
27.14625,-0.2059,-1.07889,-9.93429
27.15629,-0.25483,-1.16059,-9.93264
27.16633,-0.25513,-1.20488,-9.86112
27.17637,-0.21398,-1.22478,-9.70505
27.18641,-0.15832,-1.21431,-9.58967
27.19644,-0.0844,-1.16403,-9.56903
27.20648,-0.02439,-1.12931,-9.72285
27.21652,0.08634,-1.13246,-9.96182
27.22656,0.19363,-1.18229,-10.03051
27.2366,0.29838,-1.23855,-9.95599
27.24664,0.33983,-1.25366,-9.83134
27.25668,0.40387,-1.22329,-9.62364
27.26672,0.44383,-1.23167,-9.43241
27.27676,0.42288,-1.25995,-9.38811
27.2868,0.36227,-1.30753,-9.48418
27.29684,0.31065,-1.39193,-9.64399
27.30688,0.28895,-1.4666,-9.80665
27.31692,0.33339,-1.5287,-9.94611
27.32695,0.42003,-1.49264,-10.0112
27.33699,0.59975,-1.44759,-10.00627
27.34703,0.79293,-1.4247,-10.04622
27.35707,0.97429,-1.38594,-10.09021
27.36711,1.07245,-1.32444,-10.12074
27.37715,1.16912,-1.22299,-10.03604
27.38719,1.19725,-1.10657,-9.91229
27.39723,1.23227,-0.99509,-9.77508
27.40727,1.30574,-0.93359,-9.67796
27.41731,1.36335,-0.95274,-9.65776
27.42735,1.34494,-1.05719,-9.67123
27.43738,1.25007,-1.20428,-9.74021
27.44742,1.09924,-1.34449,-9.89583
27.45746,0.96651,-1.35841,-9.98158
27.4675,0.88675,-1.3207,-9.97784
27.47754,0.88152,-1.21745,-9.96078
27.48758,0.93598,-1.1341,-9.9705
27.49762,1.00452,-1.07141,-9.96631
27.50766,1.00362,-1.02592,-9.90137
27.5177,0.949,-1.02577,-9.74515
27.52774,0.86446,-1.07155,-9.66405
27.53778,0.72724,-1.14069,-9.69861
27.54781,0.517,-1.22433,-9.73572
27.55785,0.33055,-1.35287,-9.79423
27.56789,0.23777,-1.47184,-9.77986
27.57793,0.23179,-1.52571,-9.69622
27.58797,0.26471,-1.49847,-9.64579
27.59801,0.25004,-1.45044,-9.67302
27.60805,0.16595,-1.35078,-9.7242
27.61809,0.02843,-1.27416,-9.77089
27.62813,-0.10654,-1.261,-9.8071
27.63817,-0.18256,-1.35392,-9.81234
27.64821,-0.14201,-1.47064,-9.80261
27.65824,-0.07377,-1.56416,-9.79258
27.66828,0.04145,-1.59424,-9.81353
27.67832,0.23673,-1.56132,-9.82715
27.68836,0.35494,-1.52556,-9.87069
27.6984,0.38202,-1.54007,-9.909
27.70844,0.44457,-1.55174,-9.88356
27.71848,0.56518,-1.52241,-9.77283
27.72852,0.77602,-1.52361,-9.64624
27.73856,0.95125,-1.57553,-9.52009
27.7486,1.0735,-1.62417,-9.37839
27.75864,1.14518,-1.69554,-9.27229
27.76867,1.12677,-1.75525,-9.21064
27.77871,1.09086,-1.80119,-9.17563
27.78875,1.06527,-1.89082,-9.12131
27.79879,1.05465,-1.97656,-9.05068
27.80883,1.05345,-2.0662,-8.96928
27.81887,1.05495,-2.11303,-8.793
27.82891,0.99928,-2.06679,-8.56211
27.83895,0.86505,-1.87511,-8.37133
27.84899,0.57446,-1.52675,-8.46784
27.85903,0.15562,-1.14533,-9.12116
27.86907,-0.06015,-0.80236,-10.07405
27.8791,-0.25947,-0.54513,-10.75475
27.88914,-0.36542,-0.40492,-11.12181
27.89918,-0.34282,-0.36811,-11.16192
27.90922,-0.30332,-0.39938,-10.91382
27.91926,-0.26576,-0.54453,-10.47972
27.9293,-0.24152,-0.807,-10.0356
27.93934,-0.22476,-1.01335,-9.71612
27.94938,-0.27324,-1.16523,-9.50827
27.95942,-0.36302,-1.24873,-9.38003
27.96946,-0.46283,-1.34853,-9.22097
27.9795,-0.52508,-1.44894,-9.0429
27.98953,-0.58089,-1.55309,-8.8982
27.99957,-0.58882,-1.66906,-8.84179
28.00961,-0.64135,-1.76527,-8.82862
28.01965,-0.72978,-1.79894,-8.95357
28.02969,-0.75193,-1.76557,-9.13897
28.03973,-0.71572,-1.6297,-9.18221
28.04977,-0.67606,-1.43428,-9.12759
28.05981,-0.62504,-1.30963,-9.12715
28.06985,-0.60633,-1.25202,-9.18535
28.07989,-0.62354,-1.25351,-9.20062
28.08992,-0.66888,-1.25546,-9.22261
28.09996,-0.6807,-1.25321,-9.3103
28.11,-0.70614,-1.20593,-9.38093
28.12004,-0.72859,-1.15655,-9.44198
28.13008,-0.77213,-1.12513,-9.48104
28.14012,-0.75178,-1.09864,-9.54239
28.15016,-0.75058,-1.1148,-9.56873
28.1602,-0.78171,-1.12797,-9.63382
28.17024,-0.80819,-1.12213,-9.78645
28.18028,-0.83827,-1.07155,-9.95359
28.19032,-0.83199,-1.02143,-10.05984
28.20035,-0.83453,-0.96382,-10.09934
28.21039,-0.77782,-0.91593,-10.07929
28.22043,-0.7223,-0.85024,-9.98038
28.23047,-0.60843,-0.82824,-9.8897
28.24051,-0.48138,-0.85518,-9.79258
28.25055,-0.39998,-0.88137,-9.73812
28.26059,-0.36796,-0.92371,-9.72285
28.27063,-0.35359,-0.93494,-9.745
28.28067,-0.34866,-0.89812,-9.78016
28.29071,-0.30406,-0.87493,-9.86336
28.30075,-0.23403,-0.86221,-9.85498
28.31078,-0.12659,-0.85682,-9.83179
28.32082,-0.05327,-0.86386,-9.87399
28.33086,-0.0615,-0.83692,-9.94327
28.3409,-0.02753,-0.83827,-10.00746
28.35094,0.01781,-0.82211,-9.99729
28.36098,0.07557,-0.81448,-9.9099
28.37102,0.11791,-0.85189,-9.81024
28.38106,0.1426,-0.88047,-9.7658
28.3911,0.15024,-0.89528,-9.73827
28.40114,0.13557,-0.95978,-9.71627
28.41118,0.09278,-1.02846,-9.72794
28.42121,0.02798,-1.04806,-9.74275
28.43125,0.00359,-0.98746,-9.76984
28.44129,0.0398,-0.91653,-9.83972
28.45133,0.10864,-0.85398,-9.86216
28.46137,0.15921,-0.84889,-9.82371
28.47141,0.14081,-0.88122,-9.77807
28.48145,0.08978,-0.88989,-9.77029
28.49149,0.1049,-0.88855,-9.84645
28.50153,0.17612,-0.89812,-9.87788
28.51157,0.27384,-0.92536,-9.82027
28.52161,0.31529,-0.93434,-9.74949
28.53165,0.30451,-0.9282,-9.70205
28.54168,0.22595,-0.93553,-9.70894
28.55172,0.11672,-0.96292,-9.82012
28.56176,0.022,-0.98417,-9.96422
28.5718,-0.02933,-1.02681,-10.09994
28.58184,-0.03202,-1.08532,-10.16488
28.59188,-0.01018,-1.0753,-10.09201
28.60192,-0.0217,-1.05674,-10.0561
28.61196,-0.03995,-1.06662,-10.08961
28.622,-0.06599,-1.07141,-10.1583
28.63203,-0.11372,-1.10148,-10.19077
28.64207,-0.1875,-1.1766,-10.25422
28.65211,-0.27488,-1.25142,-10.29656
28.66215,-0.39205,-1.33312,-10.37213
28.67219,-0.44532,-1.39866,-10.36719
28.68223,-0.44442,-1.44924,-10.2605
28.69227,-0.43081,-1.41886,-10.04412
28.70231,-0.34955,-1.33581,-9.77627
28.71235,-0.21413,-1.26429,-9.48807
28.72239,-0.11821,-1.22508,-9.32332
28.73243,-0.07003,-1.23361,-9.26017
28.74246,-0.10505,-1.27551,-9.22246
28.7525,-0.14859,-1.32444,-9.20945
28.76254,-0.19079,-1.4241,-9.13552
28.77258,-0.2255,-1.46794,-9.05457
28.78262,-0.18794,-1.43847,-8.98753
28.79266,-0.13916,-1.37023,-8.94818
28.8027,-0.05986,-1.31157,-8.93381
28.81274,0.01287,-1.24274,-8.99965
28.82278,0.04788,-1.11794,-9.11951
28.83282,0.10669,-1.01933,-9.25748
28.84286,0.11791,-0.95409,-9.42852
28.8529,0.11612,-0.96771,-9.62679
28.86293,0.09278,-0.98117,-9.75488
28.87297,0.04758,-0.99554,-9.78001
28.88301,-0.01556,-1.02831,-9.81907
28.89305,-0.05537,-1.06647,-9.88117
28.90309,-0.06928,-1.08442,-9.92696
28.91313,-0.04923,-1.04761,-9.94162
28.92317,-0.0404,-1.02113,-9.89374
28.93321,-0.01511,-1.02217,-9.79079
28.94325,0.03561,-1.02801,-9.69248
28.95329,0.00988,-1.07829,-9.57711
28.96332,-0.06928,-1.15415,-9.54673
28.97336,-0.14006,-1.24349,-9.54239
28.9834,-0.18645,-1.31906,-9.56154
28.99344,-0.22116,-1.36006,-9.60599
29.00348,-0.25049,-1.3843,-9.62933
29.01352,-0.22161,-1.34659,-9.6642
29.02356,-0.1848,-1.29242,-9.66868
29.0336,-0.06928,-1.22823,-9.5991
29.04364,0.05207,-1.13994,-9.44587
29.05368,0.13183,-1.09086,-9.41475
29.06372,0.15802,-1.07455,-9.53416
29.07375,0.13497,-1.05644,-9.72884
29.08379,0.05192,-1.04971,-9.88835
29.09383,-0.01451,-1.09265,-9.97903
29.10387,-0.0395,-1.10552,-10.00118
29.11391,0.00344,-1.11091,-9.97798
29.12395,0.03891,-1.10866,-9.94881
29.13399,0.07242,-1.09026,-10.00088
29.14403,0.11357,-1.06258,-10.07734
29.15407,0.13048,-1.01514,-10.12792
29.16411,0.15173,-0.98686,-10.17057
29.17415,0.15458,-0.91518,-10.29971
29.18418,0.13482,-0.9484,-10.32365
29.19422,0.13378,-0.93628,-10.32365
29.20426,0.08814,-0.9071,-10.32559
29.2143,0.03487,-0.88466,-10.33756
29.22434,0.03995,-0.87314,-10.26529
29.23438,0.06764,-0.85503,-10.13705
29.24442,0.09008,-0.8257,-9.96452
29.25446,0.10968,-0.87149,-9.84241
29.2645,0.10759,-0.95529,-9.77268
29.27454,0.09382,-1.00571,-9.74425
29.28457,0.0392,-1.07859,-9.7465
29.29461,-0.01272,-1.16732,-9.72734
29.30465,-0.10026,-1.2589,-9.72914
29.31469,-0.25543,-1.39208,-9.8692
29.32473,-0.44068,-1.53603,-10.10488
29.33477,-0.68429,-1.66472,-10.43109
29.34481,-0.92117,-1.76438,-10.83032
29.35485,-0.98776,-1.80238,-11.36034
29.36489,-0.98372,-1.71709,-11.87958
29.37493,-1.04941,-1.58466,-12.37533
29.38497,-1.22134,-1.5275,-13.02625
29.395,-1.38026,-1.55563,-13.87694
29.40504,-1.54187,-1.63584,-15.02975
29.41508,-1.84683,-1.65679,-16.38936
29.42512,-2.24456,-1.59993,-17.57524
29.43516,-2.60444,-1.44236,-18.19833
29.4452,-2.68749,-1.24274,-18.10241
29.45524,-2.44957,-0.99434,-17.4458
29.46528,-2.07054,-0.80131,-16.71482
29.47532,-1.82468,-0.70853,-16.30556
29.48536,-1.91596,-0.61845,-16.19408
29.49539,-1.96699,-0.42901,-16.03277
29.50543,-1.93631,-0.21488,-15.60885
29.51547,-1.83336,0.01451,-14.98785
29.52551,-1.7533,0.20066,-14.3471
29.53555,-1.75734,0.36856,-13.98618
29.54559,-2.02714,0.28641,-13.88637
29.55563,-2.33135,-0.07242,-13.79374
29.56567,-2.40542,-0.38801,-13.21988
29.57571,-2.20805,-0.41943,-12.1998
29.58575,-1.74073,-0.17089,-11.16057
29.59579,-1.28449,0.12674,-10.41074
29.60582,-1.17436,0.30421,-10.0745
29.61586,-1.34764,0.391,-9.91663
29.6259,-1.33088,0.36392,-9.7221
29.63594,-1.15879,0.19243,-9.64744
29.64598,-0.88166,0.12719,-9.55556
29.65602,-0.66828,0.23119,-9.43226
29.66606,-0.46373,0.3922,-9.42522
29.6761,-0.33713,0.39893,-9.40368
29.68614,-0.24152,0.34222,-9.40951
29.69618,-0.31529,0.18645,-9.31748
29.70621,-0.43589,-0.07108,-9.15857
29.71625,-0.44323,-0.29149,-8.91212
29.72629,-0.30765,-0.35135,-8.47891
29.73633,-0.12749,-0.37439,-8.02925
29.74637,-0.16774,-0.31918,-7.61551
29.75641,-0.23493,-0.3925,-7.21029
29.76645,-0.27982,-0.54528,-7.02908
29.77649,-0.18884,-0.67591,-7.059
29.78653,0.03023,-0.79218,-7.1021
29.79657,0.33369,-0.83079,-7.15268
29.8066,0.55156,-1.02741,-7.1226
29.81664,0.5577,-1.18034,-7.06723
29.82668,0.36676,-1.05031,-7.24096
29.83672,0.20859,-0.77587,-7.40601
29.84676,0.30751,-0.59466,-7.50014
29.8568,0.5987,-0.35913,-7.60473
29.86684,0.90217,0.01601,-7.25892
29.87688,1.20503,0.36182,-6.70706
29.88692,1.38998,0.56698,-6.21071
29.89696,1.55548,0.71976,-5.71271
29.90699,1.84428,0.68489,-5.25976
29.91703,2.03971,0.60858,-5.03112
29.92707,2.13174,0.54812,-5.22115
29.93711,1.96983,0.4944,-5.41658
29.94715,1.73699,0.35344,-5.8649
29.95719,1.61399,0.22087,-6.06346
29.96723,1.62836,0.24107,-5.89827
29.97727,1.91925,0.33085,-5.71122
29.98731,2.20506,0.46133,-5.43199
29.99735,2.42248,0.46597,-5.2246
30.00739,2.53711,0.29344,-5.38142
30.01742,2.41725,0.03606,-5.76793
30.02746,2.14595,-0.20994,-6.16911
30.0375,1.81346,-0.51266,-6.68297
30.04754,1.50506,-0.60319,-6.98359
30.05758,1.19815,-0.55037,-7.06783
30.06762,1.04372,-0.43021,-7.16181
30.07766,1.04133,-0.31424,-7.2474
30.0877,1.14787,-0.26246,-7.37534
30.09774,1.23346,-0.21578,-7.40003
30.10778,1.15191,-0.16789,-7.45135
30.11781,0.98596,-0.16176,-7.54308
30.12785,0.70764,-0.20156,-7.52752
30.13789,0.4742,-0.25812,-7.42322
30.14793,0.31978,-0.32696,-7.30127
30.15797,0.29658,-0.29688,-7.15567
30.16801,0.36631,-0.27399,-6.92253
30.17805,0.47031,-0.21832,-6.55787
30.18809,0.53091,-0.20815,-6.12556
30.19813,0.59466,-0.29748,-5.76853
30.20817,0.60858,-0.46612,-5.49155
30.2182,0.52583,-0.66454,-5.35852
30.22824,0.29509,-0.88122,-5.45863
30.23828,0.03442,-1.01394,-5.73082
30.24832,-0.09652,-0.93404,-5.9478
30.25836,-0.05417,-0.77138,-6.01289
30.2684,0.05537,-0.58044,-6.05389
30.27844,0.13497,-0.44293,-6.05583
30.28848,0.0006,-0.50114,-6.1326
30.29852,-0.33279,-0.66828,-6.25395
30.30856,-0.52283,-0.84126,-6.16657
30.31859,-0.51356,-0.97923,-5.95857
30.32863,-0.38801,-1.02202,-5.8417
30.33867,-0.29838,-0.92102,-5.7799
30.34871,-0.28431,-0.82809,-5.79053
30.35875,-0.29688,-0.91877,-5.82569
30.36879,-0.11253,-1.07904,-5.77077
30.37883,0.20411,-1.27955,-5.87732
30.38887,0.4543,-1.26309,-6.0072
30.39891,0.58134,-1.0515,-6.08307
30.40895,0.57132,-0.73592,-6.21071
30.41899,0.45475,-0.42422,-6.35616
30.42902,0.37095,-0.25438,-6.64705
30.43906,0.36182,-0.16924,-7.21238
30.4491,0.40297,-0.00883,-7.84296
30.45914,0.57775,0.22625,-8.39018
30.46918,0.66693,0.44966,-8.70367
30.47922,0.75881,0.58748,-8.86244
30.48926,0.80221,0.54468,-9.00205
30.4993,0.78455,0.15607,-9.30581
30.50934,0.66005,-0.50922,-9.8463
30.51938,0.41375,-1.21281,-10.37063
30.52942,0.01526,-1.73954,-10.9406
30.53945,-0.43679,-1.98419,-11.48588
30.54949,-0.88511,-2.11513,-11.61068
30.55953,-1.1582,-2.21329,-11.39206
30.56957,-1.16059,-2.28512,-11.16551
30.57961,-1.02023,-2.36652,-11.23689
30.58965,-0.79473,-2.57362,-11.84995
30.59969,-0.5384,-2.75947,-12.61729
30.60973,-0.31768,-2.74061,-13.33226
30.61977,0.04414,-2.64499,-13.8756
30.6298,0.42976,-2.51975,-14.03242
30.63984,0.79487,-2.4572,-13.85824
30.64988,1.17376,-2.51631,-13.75499
30.65992,1.52451,-2.63676,-13.91615
30.66996,1.82977,-2.60818,-14.37853
30.68,1.85805,-2.30038,-14.64099
30.69004,1.66023,-1.87705,-14.72718
30.70008,1.31038,-1.53274,-14.75606
30.71012,0.92626,-1.34838,-14.64398
30.72016,0.64314,-1.35676,-14.7004
30.73019,0.40447,-1.48156,-14.80021
30.74023,0.30152,-1.55279,-14.85827
30.75027,0.29419,-1.47333,-14.80559
30.76031,0.25154,-1.32369,-14.69426
30.77035,0.24376,-1.24469,-14.59101
30.78039,0.16325,-1.22478,-14.33274
30.79043,0.0205,-1.25516,-13.94114
30.80047,-0.20291,-1.31427,-13.45077
30.81051,-0.42093,-1.39941,-13.01383
30.82055,-0.58808,-1.50326,-12.75301
30.83058,-0.73786,-1.65828,-12.60921
30.84062,-0.87089,-1.77306,-12.47708
30.85066,-0.93778,-1.78772,-12.25921
30.8607,-0.96756,-1.74852,-11.9966
30.87074,-0.92581,-1.67968,-11.74042
30.88078,-0.83079,-1.6098,-11.47152
30.89082,-0.75612,-1.5052,-11.19618
30.90086,-0.67232,-1.37457,-10.87446
30.9109,-0.62504,-1.22658,-10.58357
30.92094,-0.56773,-1.12363,-10.37632
30.93097,-0.47944,-1.08368,-10.20588
30.94101,-0.35135,-1.09625,-10.13211
30.95105,-0.23074,-1.15041,-10.19257
30.96109,-0.13303,-1.18004,-10.30554
30.97113,0.01182,-1.14533,-10.34295
30.98117,0.18495,-1.07724,-10.23132
30.99121,0.26576,-1.00137,-9.99445
31.00125,0.33668,-0.89079,-9.80156
31.01129,0.44757,-0.82151,-9.61182
31.02133,0.49111,-0.82286,-9.42433
31.03136,0.49096,-0.85234,-9.29893
31.0414,0.49126,-0.89678,-9.2922
31.05144,0.52837,-1.00736,-9.35594
31.06148,0.61726,-1.13141,-9.36387
31.07152,0.74445,-1.25815,-9.40113
31.08156,0.81493,-1.28284,-9.52339
31.0916,0.78904,-1.27042,-9.75712
31.10164,0.71796,-1.25247,-10.00896
31.11168,0.59391,-1.21955,-10.24733
31.12172,0.50233,-1.24289,-10.52087
31.13175,0.42781,-1.33297,-10.80144
31.14179,0.35359,-1.39672,-10.91397
31.15183,0.28805,-1.44206,-10.85501
31.16187,0.21129,-1.42096,-10.75131
31.17191,0.205,-1.29466,-10.70522
31.18195,0.22131,-1.07245,-10.65225
31.19199,0.28925,-0.86416,-10.58237
31.20203,0.42901,-0.7235,-10.54197
31.21207,0.68714,-0.70704,-10.53898
31.22211,1.02532,-0.74549,-10.41897
31.23214,1.37607,-0.73652,-10.16234
31.24218,1.67115,-0.68115,-9.78166
31.25222,1.84279,-0.74505,-9.49645
31.26226,1.87556,-0.85997,-9.38916
31.2723,1.72996,-1.01364,-9.35265
31.28234,1.43592,-1.1965,-9.29294
31.29238,1.10358,-1.41617,-9.20167
31.30242,0.86476,-1.6309,-9.09946
31.31246,0.73637,-1.76587,-8.90763
31.3225,0.73113,-1.85042,-8.68856
31.33253,0.80715,-1.90204,-8.48266
31.34257,0.79832,-1.93646,-8.24668
31.35261,0.6195,-1.93796,-8.01534
31.36265,0.4344,-2.12141,-8.08178
31.37269,0.31603,-2.33674,-8.26673
31.38273,0.32052,-2.31444,-8.37836
31.39277,0.45235,-2.1678,-8.57394
31.40281,0.61157,-1.91177,-8.73973
31.41285,0.76599,-1.5052,-9.00968
31.42289,0.86954,-1.02517,-9.39604
31.43292,0.90665,-0.5767,-9.76625
31.44296,0.97249,-0.23598,-10.04278
31.453,0.99778,-0.06135,-10.15979
31.46304,0.94975,-0.12525,-10.09395
31.47308,0.81657,-0.31633,-9.90601
31.48312,0.68534,-0.56458,-9.76984
31.49316,0.60364,-0.85802,-9.74171
31.5032,0.59212,-1.13261,-9.69472
31.51324,0.60109,-1.3641,-9.55541
31.52328,0.60214,-1.49802,-9.34203
31.53331,0.58344,-1.50895,-9.12176
31.54335,0.64239,-1.3822,-8.98843
31.55339,0.72559,-1.08517,-8.9796
31.56343,0.67322,-0.71676,-9.21004
31.57347,0.4338,-0.4344,-9.59476
31.58351,0.05387,-0.34851,-10.10443
31.59355,-0.44652,-0.34072,-10.55828
31.60359,-0.93838,-0.40507,-10.81192
31.61363,-1.1787,-0.51999,-10.74652
31.62367,-1.09101,-0.67427,-10.37168
31.6337,-0.78859,-0.79278,-9.79647
31.64374,-0.53286,-0.8471,-9.17593
31.65378,-0.34402,-0.88226,-8.73435
31.66382,-0.35404,-0.89319,-8.70367
31.67386,-0.58194,-0.95035,-8.95267
31.6839,-0.78829,-1.02472,-9.21393
31.69394,-0.95184,-1.11166,-9.36806
31.70398,-1.01185,-1.14757,-9.32467
31.71402,-0.96307,-1.14712,-9.10186
31.72406,-0.92925,-1.11315,-8.78283
31.73409,-0.9701,-1.05105,-8.55478
31.74413,-1.00751,-1.01918,-8.47428
31.75417,-1.07395,-1.06497,-8.53907
31.76421,-1.20862,-1.18019,-8.6311
31.77425,-1.36769,-1.35168,-8.68407
31.78429,-1.43547,-1.51089,-8.72881
31.79433,-1.41318,-1.57942,-8.75829
31.80437,-1.38924,-1.57209,-8.75859
31.81441,-1.33297,-1.47543,-8.8789
31.82445,-1.31786,-1.41213,-9.25673
31.83448,-1.3201,-1.34464,-9.79558
31.84452,-1.30245,-1.20997,-10.32679
31.85456,-1.32639,-1.01963,-10.66033
31.8646,-1.29437,-0.82226,-10.71046
31.87464,-1.14248,-0.60603,-10.71675
31.88468,-0.99883,-0.46103,-10.58432
31.89472,-0.8884,-0.30736,-10.44485
31.90476,-0.84949,-0.2068,-10.37318
31.9148,-0.87493,-0.12914,-10.33801
31.92484,-0.92267,-0.1462,-10.34056
31.93488,-1.01828,-0.21727,-10.37662
31.94491,-1.0741,-0.24436,-10.38844
31.95495,-1.07141,-0.21832,-10.29626
31.96499,-0.99659,-0.17478,-10.23985
31.97503,-0.92252,-0.15128,-10.19885
31.98507,-0.8269,-0.08814,-10.16189
31.99511,-0.7015,0.00015,-10.17326
32.00515,-0.59376,0.05402,-10.21097
32.01519,-0.51191,0.09292,-10.31377
32.02523,-0.43006,0.10819,-10.39921
32.03526,-0.3729,0.08963,-10.42555
32.0453,-0.30436,0.0214,-10.35462
32.05534,-0.20066,-0.01556,-10.22564
32.06538,-0.0811,-0.0841,-10.11026
32.07542,-0.01137,-0.09397,-10.00597
32.08546,0.06554,-0.11028,-9.88192
32.0955,0.12076,-0.14335,-9.82131
32.10554,0.14156,-0.20141,-9.83718
32.11558,0.10205,-0.32397,-9.92756
32.12562,0.05237,-0.46403,-10.03724
32.13565,-0.02469,-0.58269,-10.09949
32.14569,-0.06719,-0.6819,-10.1164
32.15573,-0.04669,-0.75866,-10.03395
32.16577,0.0193,-0.80251,-9.98217
32.17581,0.07063,-0.85653,-9.9304
32.18585,0.11432,-0.87912,-9.93384
32.19589,0.08649,-0.91578,-9.93085
32.20593,-0.01661,-0.98761,-9.89643
32.21597,-0.17493,-1.06273,-9.79797
32.22601,-0.29464,-1.15221,-9.63801
32.23604,-0.32696,-1.19186,-9.49735
32.24608,-0.27294,-1.18393,-9.36911
32.25612,-0.19453,-1.13665,-9.33709
32.26616,-0.12091,-1.00736,-9.38512
32.2762,-0.01302,-0.84874,-9.43854
32.28624,0.12091,-0.6382,-9.50558
32.29628,0.21383,-0.48527,-9.59955
32.30632,0.26995,-0.40058,-9.65043
32.31636,0.27429,-0.39983,-9.62664
32.3264,0.18061,-0.48318,-9.59806
32.33643,0.09367,-0.56458,-9.64923
32.34647,0.06165,-0.60199,-9.67213
32.35651,0.06539,-0.61785,-9.64908
32.36655,0.12495,-0.56787,-9.6021
32.37659,0.19453,-0.47824,-9.53865
32.38663,0.24166,-0.33489,-9.46458
32.39667,0.25184,-0.21712,-9.45201
32.40671,0.19498,-0.19139,-9.58085
32.41675,0.1043,-0.24705,-9.79483
32.42678,-0.02364,-0.31873,-10.02916
32.43682,-0.09801,-0.353,-10.15665
32.44686,-0.11747,-0.394,-10.23401
32.4569,-0.12614,-0.42811,-10.24404
32.46694,-0.05342,-0.44038,-10.19212
32.47698,0.01047,-0.40357,-10.11625
32.48702,0.10998,-0.38472,-9.96781
32.49706,0.18974,-0.32022,-9.9108
32.5071,0.20141,-0.28177,-9.92995
32.51714,0.1851,-0.27638,-9.96302
32.52717,0.14425,-0.28925,-9.96078
32.53721,0.11702,-0.31035,-9.87219
32.54725,0.0844,-0.33803,-9.76041
32.55729,0.05312,-0.38113,-9.5985
32.56733,0.05971,-0.4344,-9.47161
32.57737,0.02394,-0.4763,-9.38527
32.58741,-0.03217,-0.51415,-9.35549
32.59745,-0.06599,-0.49799,-9.34696
32.60749,-0.11073,-0.45056,-9.36926
32.61753,-0.06883,-0.38188,-9.40143
32.62756,-0.01496,-0.30332,-9.42926
32.6376,0.04938,-0.21937,-9.46398
32.64764,0.06943,-0.18106,-9.54389
32.65768,0.01796,-0.15039,-9.69726
32.66772,-0.03651,-0.17597,-9.81682
32.67776,-0.07213,-0.19258,-9.91259
32.6878,-0.05492,-0.19558,-9.91454
32.69784,-0.00314,-0.14545,-9.85977
32.70788,0.06315,-0.11732,-9.79752
32.71792,0.07452,-0.11313,-9.73318
32.72795,0.04339,-0.14694,-9.73303
32.73799,0.02843,-0.1637,-9.73901
32.74803,-0.00688,-0.17478,-9.73782
32.75807,-0.01586,-0.19737,-9.71851
32.76811,-0.03232,-0.19932,-9.67452
32.77815,-0.05507,-0.21129,-9.60883
32.78819,-0.09188,-0.23239,-9.53715
32.79823,-0.17223,-0.26576,-9.53356
32.80827,-0.26142,-0.32486,-9.5795
32.8183,-0.34821,-0.38427,-9.6847
32.82834,-0.4109,-0.44906,-9.76595
32.83838,-0.47959,-0.50817,-9.83673
32.84842,-0.49216,-0.53914,-9.87459
32.85846,-0.45161,-0.5387,-9.93938
32.8685,-0.39998,-0.50503,-9.93639
32.87854,-0.38188,-0.45684,-9.90032
32.88858,-0.3527,-0.42871,-9.81817
32.89862,-0.31289,-0.391,-9.72749
32.90866,-0.26202,-0.391,-9.69248
32.91869,-0.22401,-0.41375,-9.76326
32.92873,-0.20186,-0.40223,-9.83508
32.93877,-0.15278,-0.36362,-9.91499
32.94881,-0.14156,-0.32771,-9.97125
32.95885,-0.15996,-0.28416,-9.99819
32.96889,-0.1845,-0.2484,-9.9916
32.97893,-0.21129,-0.25184,-9.97873
32.98897,-0.18196,-0.25558,-9.93923
32.99901,-0.1646,-0.26621,-9.92277
33.00905,-0.1462,-0.24331,-9.89314
33.01908,-0.13572,-0.20635,-9.81937
33.02912,-0.11432,-0.16325,-9.77238
33.03916,-0.06554,-0.10834,-9.78016
33.0492,-0.0398,-0.07617,-9.82521
33.05924,0.00883,-0.06315,-9.89329
33.06928,0.02858,-0.05656,-10.03036
33.07932,0.05088,-0.07422,-10.27292
33.08936,0.1459,-0.00479,-10.52521
33.0994,0.22685,0.03277,-10.91397
33.10943,0.26097,0.07961,-11.15698
33.11947,0.33878,0.14784,-10.96754
33.12951,0.3527,0.12779,-10.66976
33.13955,0.25079,0.21802,-10.32425
33.14959,0.11253,0.23523,-10.04801
33.15963,0.03112,0.15413,-9.92187
33.16967,-0.01616,-0.02948,-10.04427
33.17971,-0.05746,-0.25708,-10.55753
33.18975,-0.08589,-0.37783,-11.10491
33.19979,-0.10684,-0.3699,-11.66889
33.20982,-0.05911,-0.2056,-12.11286
33.21986,0.04474,0.12016,-12.223
33.2299,0.16759,0.50188,-12.11661
33.23994,0.30496,0.84605,-12.06977
33.24998,0.35823,1.05764,-12.18903
33.26002,0.26231,1.07395,-12.43967
33.27006,0.08574,0.98985,-12.78055
33.2801,-0.14231,0.82899,-12.98061
33.29014,-0.28686,0.66619,-13.09419
33.30018,-0.17238,0.5556,-13.14372
33.31021,0.02888,0.36931,-13.28049
33.32025,0.10101,0.1016,-13.55537
33.33029,0.02125,-0.16146,-13.79135
33.34033,-0.2071,-0.29179,-13.79539
33.35037,-0.54513,-0.3928,-13.81544
33.36041,-0.85787,-0.45086,-14.0408
33.37045,-1.07604,-0.45355,-14.73826
33.38049,-1.33282,-0.43455,-15.57967
33.39053,-1.6294,-0.3702,-16.04759
33.40056,-1.79086,-0.20306,-15.98579
33.4106,-1.77964,0.20261,-15.5674
33.42064,-1.70886,0.64135,-15.22533
33.43068,-1.55997,1.09654,-14.88326
33.44072,-1.30394,1.52645,-14.35608
33.45076,-0.9891,1.80298,-13.63543
33.4608,-0.67995,1.84907,-12.98645
33.47084,-0.43754,1.86837,-12.48965
33.48088,-0.11597,1.9803,-12.09865
33.49092,0.18989,2.14401,-11.78172
33.50095,0.3518,2.20012,-11.22895
33.51099,0.54722,2.09433,-10.40685
33.52103,0.98955,2.1657,-9.60599
33.53107,1.48545,2.14146,-8.98604
33.54111,1.79999,1.94948,-8.60446
33.55115,1.86852,1.71155,-8.44031
33.56119,1.83501,1.55025,-8.33915
33.57123,1.87152,1.51388,-8.41023
33.58127,1.92015,1.59918,-8.68138
33.5913,1.82797,1.76647,-9.10964
33.60134,1.77665,1.88065,-9.40921
33.61138,1.73804,1.93272,-9.54344
33.62142,1.74537,1.8796,-9.40248
33.63146,1.81899,1.76557,-8.92094
33.6415,1.79849,1.64646,-8.41457
33.65154,1.75181,1.48156,-8.19191
33.66158,1.589,1.35018,-8.16991
33.67162,1.38116,1.33776,-8.35053
33.68166,1.0949,1.27835,-8.77924
33.69169,0.81089,1.09969,-8.89491
33.70173,0.5773,0.95813,-9.04484
33.71177,0.4344,0.85219,-9.53177
33.72181,-0.01422,0.58823,-9.56274
33.73185,-0.42722,0.41869,-9.5186
33.74189,-0.69013,0.3111,-9.52847
33.75193,-0.91563,0.23418,-9.39724
33.76197,-1.01783,-0.02125,-8.88937
33.77201,-1.1362,-0.30272,-8.04123
33.78205,-0.99524,-0.4332,-7.30501
33.79208,-0.50129,-0.46462,-6.82707
33.80212,0.22012,-0.21922,-6.28523
33.81216,0.87583,0.08918,-5.99179
33.8222,1.14159,0.11492,-5.905
33.83224,0.90217,-0.00584,-5.99239
33.84228,0.40148,-0.01047,-6.19814
33.85232,-0.17807,-0.00524,-6.10551
33.86236,-0.53181,-0.14844,-6.03399
33.8724,-0.44712,-0.36781,-6.03848
33.88243,-0.02095,-0.67935,-5.92445
33.89247,0.48782,-0.90606,-5.52312
33.90251,0.91608,-0.94257,-5.08394
33.91255,1.18932,-0.95693,-4.50499
33.92259,0.97968,-1.135,-4.38648
33.93263,0.28147,-1.31681,-4.89928
33.94267,-0.50458,-1.35003,-5.31917
33.95271,-1.15116,-1.32085,-5.71361
33.96275,-1.51104,-1.37502,-6.0702
33.97278,-1.46301,-1.6095,-6.24108
33.98282,-1.22254,-1.97297,-6.15205
33.99286,-0.79069,-2.37804,-6.21849
34.0029,-0.65197,-2.65083,-6.42589
34.01294,-0.80266,-2.63168,-6.48694
34.02298,-1.0961,-2.51765,-6.26413
34.03302,-1.28688,-2.39136,-6.12467
34.04306,-1.22224,-2.24995,-6.20936
34.0531,-1.06707,-2.10974,-6.43517
34.06314,-0.89618,-1.97522,-6.6876
34.07317,-0.6002,-1.79281,-7.10779
34.08321,-0.3699,-1.41033,-7.1229
34.09325,-0.25573,-1.18289,-6.89994
34.10329,-0.32037,-1.14877,-6.6466
34.11333,-0.49605,-1.30185,-6.59977
34.12337,-0.77692,-1.5498,-6.78158
34.13341,-1.01544,-1.82004,-7.11721
34.14345,-1.13321,-2.06126,-7.32925
34.15349,-1.18393,-2.16975,-7.4132
34.16352,-1.22688,-2.11213,-7.30351
34.17356,-1.22179,-1.91386,-7.08265
34.1836,-1.20458,-1.66247,-6.95456
34.19364,-1.18603,-1.46226,-7.03835
34.20368,-1.16313,-1.36335,-7.28975
34.21372,-1.16044,-1.2782,-7.50492
34.22376,-1.14727,-1.22359,-7.6794
34.2338,-1.15939,-1.1953,-7.80225
34.24384,-1.25531,-1.18633,-7.91553
34.25388,-1.26174,-1.12498,-8.01279
34.26391,-1.16672,-1.03908,-7.99199
34.27395,-1.10328,-0.91414,-7.85777
34.28399,-1.09011,-0.74654,-7.52168
34.29403,-1.06392,-0.55112,-6.98044
34.30407,-1.07844,-0.47121,-6.56206
34.31411,-0.95963,-0.51041,-6.55098
34.32415,-0.70509,-0.51266,-6.77275
34.33419,-0.44323,-0.34731,-7.09626
34.34423,-0.23897,0.04654,-7.02982
34.35426,-0.05985,0.3512,-6.50744
34.3643,0.10983,0.40013,-6.04117
34.37434,0.01945,0.18316,-5.77077
34.38438,-0.34611,-0.4139,-6.17076
34.39442,-0.79083,-1.06811,-6.92732
34.40446,-1.06587,-1.24289,-7.35633
34.4145,-1.21266,-1.13844,-7.44312
34.42454,-1.13844,-1.09011,-7.10958
34.43458,-1.13515,-1.06198,-7.00708
34.44462,-1.01335,-1.1133,-7.22585
