t,ax,ay,az
0.0,1.64646,-5.41928,-8.12068
0.01004,1.56027,-5.3898,-8.10841
0.02007,1.58406,-5.36346,-8.05798
0.03011,1.49623,-5.27592,-7.90042
0.04015,1.47498,-5.19153,-7.65561
0.05018,1.59918,-5.16773,-7.46856
0.06022,1.64841,-5.25527,-7.46497
0.07026,1.62192,-5.42167,-7.60803
0.08029,1.55922,-5.44905,-8.17799
0.09033,1.30708,-5.25812,-8.69769
0.10036,1.00527,-5.04982,-9.17174
0.1104,0.77572,-4.93804,-9.82984
0.12044,0.61516,-4.8101,-10.33816
0.13047,0.43799,-4.44484,-10.64627
0.14051,0.31334,-4.13972,-10.63729
0.15055,0.3319,-4.12895,-10.53539
0.16058,0.33025,-4.26452,-10.58596
0.17062,0.34043,-4.4782,-10.26993
0.18066,0.44876,-4.72256,-9.63098
0.19069,0.55037,-4.9343,-9.08974
0.20073,0.4745,-5.0986,-8.92259
0.21077,0.22685,-5.12599,-8.96434
0.2208,0.04594,-4.95315,-8.5898
0.23084,-0.07317,-3.95567,-7.77412
0.24088,0.03217,-3.06458,-7.6402
0.25091,0.62758,-3.23457,-8.45123
0.26095,1.20234,-3.62572,-8.89476
0.27099,1.77695,-3.57499,-8.87755
0.28102,1.98958,-3.80798,-9.17219
0.29106,1.9634,-4.15858,-9.63023
0.3011,1.93197,-4.49332,-9.85723
0.31113,1.92135,-4.73633,-9.34352
0.32117,1.83171,-4.96318,-8.43642
0.33121,1.52675,-5.31692,-7.85867
0.34124,1.07545,-5.95737,-7.93543
0.35128,0.69956,-6.1519,-7.83847
0.36131,0.45699,-5.9882,-7.52976
0.37135,0.43919,-5.56787,-7.28675
0.38139,0.5981,-5.16953,-7.2652
0.39142,0.65287,-4.51247,-7.73881
0.40146,0.85114,-3.2624,-9.67886
0.4115,0.99015,-2.19339,-10.70403
0.42153,1.07859,-2.03253,-9.77104
0.43157,1.01739,-1.96878,-10.42645
0.44161,1.32429,-1.42365,-10.59689
0.45164,1.63404,-1.23017,-10.20783
0.46168,1.68447,-1.74343,-10.93387
0.47172,1.61728,-2.84132,-11.42408
0.48175,1.59738,-3.93876,-11.00869
0.49179,1.62776,-4.83763,-10.25332
0.50183,1.73864,-5.52627,-9.23952
0.51186,1.77261,-5.89033,-7.95309
0.5219,1.58047,-5.9867,-6.91221
0.53194,1.16628,-6.1504,-6.47213
0.54197,0.64359,-6.49068,-6.59348
0.55201,0.29838,-6.75763,-7.02145
0.56205,0.16505,-6.69149,-7.31324
0.57208,0.25379,-6.31546,-7.48368
0.58212,0.48213,-5.83632,-7.75961
0.59216,0.89798,-5.28819,-8.84987
0.60219,1.28105,-4.9331,-10.10099
0.61223,1.12423,-5.03575,-9.41744
0.62227,1.03849,-5.18913,-9.68185
0.6323,1.19141,-5.101,-9.93683
0.64234,1.25651,-4.7896,-9.93414
0.65237,1.31232,-4.44603,-9.85124
0.66241,1.51448,-4.06655,-9.72225
0.67245,1.74477,-3.95776,-9.71567
0.68248,1.81885,-4.19464,-9.48807
0.69252,1.79026,-4.45007,-9.22755
0.70256,1.72996,-4.48329,-9.04155
0.71259,1.67998,-4.27305,-8.80108
0.72263,1.66741,-4.18626,-8.69544
0.73267,1.63689,-4.27006,-8.76667
0.7427,1.4663,-4.32692,-8.856
0.75274,1.32758,-4.32527,-8.68661
0.76278,1.29197,-4.3154,-8.23381
0.77281,1.4021,-4.29984,-7.92346
0.78285,1.48096,-4.18686,-7.96626
0.79289,1.65709,-4.11219,-7.44387
0.80292,1.8995,-4.2548,-6.30648
0.81296,1.76557,-4.376,-6.78726
0.823,1.51418,-4.50125,-7.40721
0.83303,1.03145,-4.70072,-8.13041
0.84307,0.54229,-4.90692,-8.87067
0.85311,0.39025,-4.98428,-9.12655
0.86314,0.46268,-4.88148,-9.02105
0.87318,0.65661,-4.543,-8.41203
0.88322,0.95364,-4.22831,-7.58857
0.89325,1.27805,-4.06939,-6.95156
0.90329,1.41004,-4.05832,-6.72187
0.91332,1.40001,-4.05488,-7.06664
0.92336,1.26549,-3.89596,-7.9465
0.9334,1.24454,-3.74378,-8.85346
0.94343,1.27312,-3.73406,-9.30896
0.95347,1.3231,-3.81965,-9.4984
0.96351,1.3626,-3.9226,-9.43405
0.97354,1.41467,-4.03094,-9.02345
0.98358,1.43981,-4.15693,-8.54505
0.99362,1.4651,-4.26452,-8.1557
1.00365,1.45358,-4.34847,-7.86645
1.01369,1.44355,-4.48464,-7.73567
1.02373,1.38011,-4.5213,-8.13026
1.03376,1.25726,-4.39037,-8.74647
1.0438,1.11435,-4.22696,-9.20451
1.05384,1.02083,-4.11189,-9.74605
1.06387,0.94751,-3.99098,-10.29133
1.07391,0.84695,-3.93547,-10.66692
1.08395,0.72933,-3.97767,-10.5903
1.09398,0.72948,-4.00236,-10.31751
1.10402,0.75642,-4.26273,-10.29222
1.11406,0.69013,-4.52519,-9.85798
1.12409,0.71168,-4.49317,-9.27633
1.13413,0.79712,-4.33829,-8.80123
1.14417,0.86131,-4.14242,-8.57812
1.1542,0.86969,-3.92589,-8.53308
1.16424,0.83962,-3.78793,-8.7526
1.17427,0.81463,-3.74438,-9.09557
1.18431,0.75776,-3.77715,-9.42358
1.19435,0.72499,-3.78957,-9.65163
1.20438,0.71826,-3.76548,-9.75907
1.21442,0.74939,-3.76309,-9.73782
1.22446,0.80385,-3.83297,-9.58638
1.23449,0.87897,-3.87202,-9.42103
1.24453,0.97609,-3.79631,-9.2093
1.25457,1.03444,-3.62213,-9.06011
1.2646,1.05225,-3.43882,-8.9603
1.27464,1.08562,-3.26958,-8.92543
1.28468,1.09445,-3.16678,-8.85929
1.29471,1.07949,-3.19252,-8.77026
1.30475,1.13201,-3.27452,-8.83595
1.31479,1.15954,-3.39318,-9.01836
1.32482,1.08861,-3.50317,-9.28666
1.33486,0.98252,-3.53938,-9.39978
1.3449,0.91189,-3.52935,-9.26347
1.35493,0.84755,-3.47668,-9.07358
1.36497,0.8037,-3.37642,-8.92588
1.37501,0.78769,-3.27871,-8.69784
1.38504,0.84066,-3.2401,-8.39736
1.39508,0.85159,-3.24429,-8.15899
1.40512,0.86027,-3.23292,-8.13056
1.41515,0.85069,-3.17681,-8.25117
1.42519,0.76599,-3.16738,-8.40529
1.43522,0.69477,-3.14209,-8.5045
1.44526,0.66619,-3.15361,-8.57857
1.4553,0.59167,-3.15885,-8.43372
1.46533,0.46896,-3.0767,-8.43163
1.47537,0.36946,-2.99036,-8.74752
1.48541,0.2695,-2.86227,-9.24626
1.49544,0.22491,-2.69976,-9.68844
1.50548,0.11986,-2.52932,-9.83059
1.51552,0.08933,-2.4584,-9.77986
1.52555,0.14231,-2.37265,-9.704
1.53559,0.07392,-2.27808,-9.73423
1.54563,-0.03232,-2.17483,-9.68634
1.55566,-0.07991,-2.11049,-9.54912
1.5657,-0.07392,-2.13967,-9.55197
1.57574,-0.07108,-2.25294,-9.67602
1.58577,-0.1875,-2.35784,-9.65701
1.59581,-0.34596,-2.34108,-9.5373
1.60585,-0.41105,-2.21898,-9.5988
1.61588,-0.4344,-2.02445,-9.82476
1.62592,-0.38756,-1.8175,-9.91933
1.63596,-0.33249,-1.67938,-9.89628
1.64599,-0.34252,-1.65873,-9.89419
1.65603,-0.41943,-1.72038,-9.94192
1.66607,-0.54633,-1.76198,-9.96078
1.6761,-0.68714,-1.75465,-9.90182
1.68614,-0.76001,-1.72801,-9.83762
1.69618,-0.79802,-1.68956,-9.73482
1.70621,-0.826,-1.6505,-9.69816
1.71625,-0.81627,-1.63898,-9.80441
1.72628,-0.81328,-1.62162,-9.85902
1.73632,-0.79143,-1.57793,-9.85648
1.74636,-0.71347,-1.53693,-9.79692
1.75639,-0.64763,-1.50984,-9.76685
1.76643,-0.63461,-1.47692,-9.79438
1.77647,-0.57476,-1.43473,-9.85962
1.7865,-0.41584,-1.34105,-9.89658
1.79654,-0.3102,-1.2176,-9.75458
1.80658,-0.2689,-1.17316,-9.55197
1.81661,-0.27249,-1.25845,-9.45605
1.82665,-0.29883,-1.39552,-9.44423
1.83669,-0.2689,-1.47273,-9.37659
1.84672,-0.21967,-1.47483,-9.29683
1.85676,-0.13243,-1.42201,-9.24237
1.8668,-0.06,-1.35931,-9.23384
1.87683,-0.0003,-1.31008,-9.31599
1.88687,0.06809,-1.31023,-9.44498
1.89691,0.09053,-1.31157,-9.59177
1.90694,0.05148,-1.35003,-9.74156
1.91698,0.02065,-1.31741,-9.88865
1.92702,0.0205,-1.23062,-9.88476
1.93705,0.08649,-1.18199,-9.76251
1.94709,0.16206,-1.14518,-9.63217
1.95713,0.18645,-1.15655,-9.54853
1.96716,0.19588,-1.20593,-9.47715
1.9772,0.16296,-1.25755,-9.47401
1.98723,0.15383,-1.3026,-9.54329
1.99727,0.15652,-1.31636,-9.66554
2.00731,0.18914,-1.30215,-9.83179
2.01734,0.19378,-1.25007,-9.94866
2.02738,0.19917,-1.1781,-9.96661
2.03742,0.16296,-1.1549,-9.97873
2.04745,0.13467,-1.16927,-10.04038
2.05749,0.13168,-1.21102,-10.08393
2.06753,0.1438,-1.25815,-10.10443
2.07756,0.16759,-1.23586,-10.02856
2.0876,0.22311,-1.20563,-9.98786
2.09764,0.21323,-1.19171,-9.89404
2.10767,0.17119,-1.23167,-9.83314
2.11771,0.15293,-1.299,-9.8086
2.12775,0.15353,-1.32639,-9.74126
2.13778,0.17538,-1.30424,-9.76281
2.14782,0.18525,-1.27701,-9.77971
2.15786,0.17717,-1.22987,-9.80426
2.16789,0.15562,-1.20997,-9.83089
2.17793,0.13303,-1.21416,-9.85902
2.18797,0.14156,-1.23421,-9.82595
2.198,0.15173,-1.20294,-9.85723
2.20804,0.18914,-1.17121,-9.87623
2.21808,0.2478,-1.12617,-9.90556
2.22811,0.23538,-1.09804,-9.8493
2.23815,0.21323,-1.12632,-9.74769
2.24818,0.22116,-1.17091,-9.67003
2.25822,0.21293,-1.20862,-9.60643
2.26826,0.21069,-1.21566,-9.53955
2.27829,0.23792,-1.22763,-9.49166
2.28833,0.26441,-1.20967,-9.48074
2.29837,0.27099,-1.18453,-9.518
2.30841,0.24436,-1.18483,-9.54404
2.31844,0.21263,-1.17944,-9.58204
2.32848,0.16505,-1.19336,-9.62125
2.33851,0.13198,-1.1995,-9.61915
2.34855,0.13557,-1.21551,-9.60479
2.35859,0.1655,-1.16433,-9.63307
2.36862,0.23179,-1.10403,-9.63202
2.37866,0.25184,-1.08682,-9.64818
2.3887,0.2074,-1.09385,-9.64369
2.39873,0.17433,-1.16777,-9.64818
2.40877,0.16116,-1.2173,-9.61107
2.41881,0.17478,-1.2381,-9.52773
2.42884,0.22266,-1.22389,-9.47939
2.43888,0.27354,-1.21206,-9.49974
2.44892,0.32771,-1.19126,-9.5605
2.45895,0.35255,-1.14967,-9.58773
2.46899,0.35838,-1.12557,-9.57247
2.47903,0.34222,-1.13964,-9.58399
2.48906,0.3105,-1.16074,-9.5593
2.4991,0.25708,-1.19246,-9.58444
2.50913,0.23583,-1.22419,-9.59237
2.51917,0.20889,-1.26474,-9.57351
2.52921,0.24541,-1.26788,-9.5792
2.53924,0.29778,-1.25067,-9.60254
2.54928,0.32082,-1.23855,-9.58983
2.55932,0.34267,-1.23242,-9.63457
2.56935,0.31065,-1.21775,-9.69218
2.57939,0.30406,-1.1959,-9.77478
2.58943,0.33773,-1.19486,-9.89943
2.59946,0.34866,-1.21581,-9.96123
2.6095,0.3527,-1.21012,-9.90017
2.61954,0.36811,-1.24783,-9.73423
2.62957,0.43395,-1.25157,-9.53326
2.63961,0.51999,-1.27626,-9.38871
2.64965,0.54737,-1.30634,-9.33634
2.65968,0.40387,-1.28988,-9.34202
2.66972,0.15832,-1.23002,-9.39874
2.67976,0.03666,-1.26279,-9.34891
2.68979,0.23733,-1.38639,-9.50722
2.69983,0.28042,-1.4654,-10.04233
2.70987,0.41704,-1.62626,-10.53539
2.7199,0.48453,-1.7337,-10.76358
2.72994,-0.12614,-1.31502,-10.47583
2.73998,-0.53196,-0.96471,-10.27023
2.75001,-0.84695,-0.78365,-10.25811
2.76005,-1.13276,-0.65182,-10.18688
2.77008,-1.3424,-0.57251,-10.14169
2.78012,-1.43233,-0.67831,-10.1794
2.79016,-1.38998,-0.9481,-10.51159
2.80019,-1.47184,-1.25486,-10.82224
2.81023,-1.55339,-1.4856,-10.67619
2.82027,-1.54591,-1.64871,-10.09156
2.8303,-1.42844,-1.80418,-9.46712
2.84034,-1.20698,-1.94364,-9.14555
2.85038,-0.96875,-2.07502,-9.18805
2.86041,-0.78994,-2.09852,-9.28621
2.87045,-0.8278,-1.89785,-9.03871
2.88049,-0.91488,-1.50027,-8.67464
2.89052,-0.90306,-1.06766,-8.55418
2.90056,-0.83857,-0.88735,-8.75814
2.9106,-0.71691,-1.00721,-9.26541
2.92063,-0.54094,-1.217,-9.70804
2.93067,-0.50937,-1.28973,-9.97783
2.94071,-0.3527,-1.23361,-10.22145
2.95074,-0.2291,-1.06766,-10.50531
2.96078,-0.19468,-0.78724,-10.79381
2.97082,-0.27982,-0.42961,-10.6931
2.98085,-0.33444,-0.1022,-10.22429
2.99089,-0.33833,-0.01885,-9.73782
3.00093,-0.19558,-0.29523,-9.54059
3.01096,-0.01437,-0.67292,-9.76101
3.021,-0.01691,-0.88795,-10.08812
3.03103,-0.1233,-0.90351,-10.21337
3.04107,-0.08529,-0.82675,-10.07375
3.05111,0.07063,-0.68788,-9.93549
3.06115,0.27952,-0.49066,-10.12972
3.07118,0.3512,-0.41779,-10.71689
3.08122,0.11687,-0.52358,-11.20651
3.09125,-0.32262,-0.74983,-11.41196
3.10129,-0.73876,-1.1154,-11.41555
3.11133,-0.96561,-1.37936,-11.30632
3.12136,-1.01365,-1.38086,-11.3563
3.1314,-0.94736,-1.19141,-11.64764
3.14144,-0.84605,-0.92835,-12.23048
3.15147,-0.92536,-0.77856,-12.45105
3.16151,-1.21431,-0.92536,-12.41304
3.17155,-1.43832,-1.22987,-12.81302
3.18158,-1.62267,-1.39612,-13.18906
3.19162,-1.70692,-1.26384,-13.28378
3.20166,-1.79475,-0.96007,-13.37087
3.21169,-1.82902,-0.82016,-13.53322
3.22173,-1.80762,-0.82735,-13.6878
3.23177,-1.84907,-0.99778,-13.87425
3.2418,-1.96788,-1.07993,-13.69573
3.25184,-2.09612,-1.05779,-13.07159
3.26188,-2.20985,-1.00227,-12.59784
3.27191,-2.34991,-1.04821,-12.38895
3.28195,-2.57062,-1.1133,-12.34061
3.29198,-2.81453,-1.12333,-12.1805
3.30202,-2.78296,-1.43278,-11.23958
3.31206,-2.72505,-1.6092,-10.64058
3.32209,-2.66968,-1.70781,-10.31422
3.33213,-2.62809,-1.93437,-10.20558
3.34217,-2.63302,-2.17917,-10.57938
3.35221,-2.83833,-2.02789,-10.54257
3.36224,-2.92931,-1.75824,-10.76448
3.37228,-2.87469,-1.56446,-11.64091
3.38231,-3.00053,-1.04642,-12.45494
3.39235,-2.96447,-0.58523,-12.94186
3.40239,-2.92437,-0.31349,-13.05857
3.41242,-3.00188,-0.17089,-13.01668
3.42246,-2.97928,-0.26441,-13.03239
3.4325,-2.63437,-0.29,-12.64258
3.44253,-2.18306,-0.03651,-11.95889
3.45257,-1.82543,0.12929,-11.42199
3.46261,-1.65604,0.39849,-10.84828
3.47264,-1.35721,0.48408,-10.25481
3.48268,-1.03145,0.51356,-9.98247
3.49272,-0.84845,0.38098,-9.75218
3.50275,-0.71242,0.19677,-9.27738
3.51279,-0.77617,0.16819,-8.8382
3.52283,-0.94661,0.07377,-8.4231
3.53286,-1.11675,-0.18016,-8.00322
3.5429,-1.24783,-0.53855,-7.66504
3.55294,-1.33148,-0.79727,-7.56238
3.56297,-1.20922,-0.81238,-7.47081
3.57301,-1.01739,-0.71407,-7.28062
3.58304,-0.80655,-0.45774,-7.24545
3.59308,-0.32471,-0.22924,-7.37294
3.60312,0.25019,-0.04339,-7.11497
3.61315,0.75627,0.19034,-6.82542
3.62319,1.23436,0.34028,-6.5661
3.63323,1.45418,0.39863,-6.28313
3.64326,1.41004,0.31544,-6.21041
3.6533,1.37173,0.11417,-6.31516
3.66334,1.37562,-0.11552,-6.56909
3.67337,1.42485,-0.31918,-6.71035
3.68341,1.44251,-0.39609,-6.64645
3.69345,1.47513,-0.29823,-6.61383
3.70348,1.43428,-0.25304,-6.67683
3.71352,1.23945,-0.42362,-6.60291
3.72356,0.99793,-0.77348,-6.68297
3.73359,0.79577,-1.13949,-6.8145
3.74363,0.62788,-1.32175,-6.90652
3.75367,0.58942,-1.39372,-6.86986
3.7637,0.64718,-1.31591,-6.92658
3.77374,0.65481,-1.25486,-7.02549
3.78378,0.60035,-1.29182,-7.18694
3.79381,0.3705,-1.40091,-7.22809
3.80385,0.07287,-1.66277,-7.09192
3.81389,-0.21219,-2.00215,-6.79878
3.82392,-0.43859,-2.27105,-6.73654
3.83396,-0.4959,-2.34811,-6.97087
3.84399,-0.48692,-2.15343,-7.04913
3.85403,-0.39938,-2.0008,-7.0406
3.86407,-0.2665,-1.88379,-7.06828
3.8741,-0.20111,-1.99721,-6.99032
3.88414,-0.22685,-2.27509,-6.79355
3.89418,-0.26022,-2.4985,-6.45492
3.90421,-0.21937,-2.61088,-6.24528
3.91425,-0.03801,-2.65996,-6.07304
3.92429,0.10086,-2.71488,-5.94361
3.93432,0.14739,-2.74076,-6.0063
3.94436,0.05282,-2.78191,-6.08202
3.9544,-0.12764,-2.76695,-6.14277
3.96443,-0.3292,-2.63302,-6.1305
3.97447,-0.63252,-2.52858,-5.9056
3.98451,-0.84081,-2.56898,-5.76299
3.99454,-0.86835,-2.63183,-5.83602
4.00458,-0.85338,-2.47755,-5.72917
4.01462,-0.70838,-2.20311,-5.58208
4.02465,-0.60633,-1.91491,-5.47584
4.03469,-0.60349,-1.80224,-5.35358
4.04473,-0.621,-1.84069,-5.26186
4.05476,-0.59017,-1.76498,-5.04473
4.0648,-0.48064,-1.60771,-4.70805
4.07484,-0.36437,-1.51867,-4.40443
4.08487,-0.23119,-1.46226,-4.40428
4.09491,-0.2469,-1.38549,-4.62545
4.10494,-0.51864,-1.33671,-5.05476
4.11498,-0.68953,-1.35033,-5.75506
4.12502,-0.6394,-1.52316,-6.29211
4.13505,-0.53795,-1.45059,-6.3777
4.14509,-0.2261,-1.09385,-6.39087
4.15513,0.14859,-0.58134,-6.56146
4.16516,0.44442,-0.15667,-6.88004
4.1752,0.44487,0.04923,-7.22809
4.18524,0.29284,0.11926,-7.34287
4.19527,0.23897,-0.03367,-7.57091
4.20531,0.05297,-0.37215,-8.27825
4.21535,-0.11313,-0.60199,-9.25284
4.22538,0.11492,-0.62788,-10.35881
4.23542,0.41315,-0.33205,-11.11852
4.24546,0.7226,0.10819,-11.41077
4.25549,0.97683,0.47809,-11.58629
4.26553,0.91548,0.6822,-11.6855
4.27557,0.74175,0.66125,-11.96876
4.2856,0.35105,0.21712,-12.45434
4.29564,-0.04579,-0.77931,-13.3568
4.30568,-0.14694,-1.59199,-13.81065
4.31571,0.13018,-1.77395,-14.23727
4.32575,0.55501,-1.4247,-14.68843
4.33579,0.98222,-0.77542,-15.42539
4.34582,1.27491,-0.21234,-16.06898
4.35586,1.38624,-0.06449,-15.97681
4.36589,1.46405,-0.28805,-15.35835
4.37593,1.48201,-0.53645,-14.56393
4.38597,1.43787,-0.61396,-14.10349
4.396,1.31546,-0.60274,-14.07641
4.40604,1.10537,-0.60693,-14.00488
4.41608,0.8269,-0.90501,-13.86377
4.42611,0.53181,-1.23616,-13.58874
4.43615,0.27952,-1.35093,-13.60909
4.44619,0.13198,-1.25636,-13.86213
4.45622,0.167,-1.05689,-13.93126
4.46626,0.40866,-0.90501,-13.38598
4.4763,0.65466,-0.82705,-12.44386
4.48633,0.82675,-0.85114,-11.55382
4.49637,0.92955,-0.8884,-11.00076
4.50641,0.83977,-0.886,-10.97936
4.51644,0.57356,-1.0334,-10.97308
4.52648,0.33519,-1.18872,-10.82912
4.53652,0.28775,-1.36305,-10.78827
4.54655,0.30077,-1.37637,-10.87985
4.55659,0.36347,-1.18722,-10.95138
4.56663,0.49246,-0.93883,-11.00794
4.57666,0.63282,-0.74699,-11.09473
4.5867,0.73682,-0.62474,-11.07797
4.59674,0.79413,-0.48602,-10.96185
4.60677,0.68325,-0.43305,-10.77196
4.61681,0.49934,-0.4947,-10.70597
4.62684,0.30032,-0.60633,-10.84992
4.63688,0.14171,-0.6605,-10.90409
4.64692,0.14859,-0.63835,-10.89511
4.65695,0.24316,-0.4736,-10.72363
4.66699,0.36108,-0.30287,-10.57444
4.67703,0.45759,-0.16415,-10.45653
4.68706,0.52628,-0.11851,-10.41792
4.6971,0.47839,-0.16505,-10.4899
4.70714,0.40701,-0.2484,-10.50366
4.71717,0.43141,-0.31933,-10.35313
4.72721,0.54693,-0.35778,-10.16788
4.73725,0.65676,-0.4142,-9.88611
4.74728,0.75851,-0.43245,-9.62514
4.75732,0.77961,-0.45161,-9.47281
4.76736,0.79847,-0.50368,-9.40427
4.77739,0.78829,-0.53495,-9.33065
4.78743,0.76644,-0.52882,-9.31898
4.79747,0.78694,-0.51475,-9.41849
4.8075,0.85144,-0.47106,-9.41864
4.81754,0.92162,-0.4139,-9.44587
4.82758,0.99225,-0.34132,-9.40802
4.83761,0.95753,-0.30556,-9.42238
4.84765,0.83842,-0.3497,-9.61856
4.85769,0.77258,-0.40253,-9.79288
4.86772,0.71991,-0.44218,-9.83703
4.87776,0.66649,-0.47525,-9.76176
4.88779,0.67083,-0.4757,-9.63157
4.89783,0.65033,-0.536,-9.4755
4.9085,0.63087,-0.59017,-9.40936
4.91853,0.63087,-0.59017,-9.40936
4.92857,0.59601,-0.703,-9.38961
4.93861,0.60723,-0.82375,-9.40697
4.94864,0.66424,-0.8655,-9.54987
4.95868,0.78964,-0.79473,-9.74724
4.96872,1.02981,-0.68175,-9.89479
4.97875,1.33148,-0.58688,-9.92965
4.98879,1.59199,-0.51041,-9.89987
4.99882,1.77725,-0.53166,-9.83748
5.00886,1.88109,-0.53495,-9.8695
5.0189,1.90668,-0.55306,-9.7022
5.02893,1.99183,-0.68519,-9.48403
5.03897,2.11603,-0.80685,-9.67228
5.04901,2.32372,-0.88256,-9.84047
5.05904,2.52873,-0.76734,-9.71732
5.06908,2.56748,-0.60409,-9.6621
5.07912,2.46049,-0.56084,-9.60599
5.08915,2.33315,-0.58254,-9.53132
5.09919,2.19414,-0.71048,-9.51875
5.10923,2.13638,-0.86416,-9.64025
5.11926,2.14401,-0.93359,-9.77074
5.1293,2.34422,-0.94466,-9.8888
5.13934,2.52319,-0.8676,-9.75817
5.14937,2.61118,-0.75208,-9.53266
5.15941,2.61372,-0.61097,-9.33125
5.16945,2.56404,-0.55186,-9.28202
5.17948,2.51571,-0.60454,-9.56035
5.18952,2.42353,-0.69372,-9.9111
5.19956,2.40258,-0.6418,-10.16518
5.20959,2.43116,-0.44083,-10.06103
5.21963,2.39196,-0.23957,-9.7462
5.22967,2.21164,-0.17238,-9.50019
5.2397,1.961,-0.29314,-9.42388
5.24974,1.5896,-0.55321,-9.42433
5.25977,1.24798,-0.85712,-9.68604
5.26981,1.06766,-1.15969,-10.076
5.27985,1.14892,-1.25007,-10.4242
5.28988,1.35347,-1.01634,-10.45009
5.29992,1.41856,-0.67098,-10.06597
5.30996,1.31546,-0.38457,-9.86501
5.31999,1.0108,-0.24915,-9.70295
5.33003,0.80894,-0.40896,-9.7016
5.34007,0.63267,-0.67801,-9.67871
5.3501,0.53585,-0.89244,-9.54448
5.36014,0.5592,-0.97235,-9.64744
5.37018,0.51805,-0.97085,-10.00776
5.38021,0.37948,-0.85772,-10.23925
5.39025,0.32082,-0.77243,-10.12732
5.40029,0.34342,-0.77004,-9.81847
5.41032,0.40971,-0.83917,-9.33065
5.42036,0.44757,-0.92386,-8.90284
5.4304,0.3916,-0.96801,-8.76861
5.44043,0.36601,-0.9101,-9.2084
5.45047,0.34252,-0.75747,-9.65731
5.46051,0.22087,-0.58389,-9.96586
5.47054,0.03666,-0.48647,-9.98412
5.48058,-0.27533,-0.52912,-9.59626
5.49062,-0.46328,-0.73412,-9.2919
5.50065,-0.39863,-1.06617,-9.477
5.51069,-0.32606,-1.24903,-9.80725
5.52072,-0.36781,-1.1374,-10.16039
5.53076,-0.39893,-0.88196,-10.30539
5.5408,-0.34851,-0.60783,-10.14019
5.55083,-0.30825,-0.51475,-9.80396
5.56087,-0.26531,-0.5369,-9.45365
5.57091,-0.15353,-0.63446,-9.19433
5.58094,-0.16759,-0.63925,-9.40652
5.59161,-0.55141,-0.58059,-10.43019
5.60164,-0.72185,-0.63162,-10.46535
5.61168,-0.73786,-0.72679,-10.11924
5.62172,-0.63656,-0.84261,-9.6422
5.63175,-0.51296,-0.88166,-9.31659
5.64179,-0.41973,-0.86027,-9.21064
5.65183,-0.287,-0.83573,-9.25808
5.66186,-0.15517,-0.77602,-9.43016
5.6719,-0.01736,-0.67068,-9.59701
5.68194,0.06734,-0.49769,-9.71073
5.69197,0.05956,-0.39564,-9.76071
5.70201,-0.0199,-0.51086,-9.71223
5.71205,-0.26441,-0.76166,-9.59581
5.72208,-0.37125,-1.07096,-9.59716
5.73212,-0.35853,-1.2574,-9.52428
5.74216,-0.2481,-1.19695,-9.54284
5.75219,-0.03621,-0.97339,-9.58908
5.76223,0.21668,-0.75522,-9.50887
5.77227,0.41539,-0.61142,-9.38303
5.7823,0.42063,-0.59122,-9.36926
5.79234,0.3307,-0.67038,-9.44064
5.80238,0.25588,-0.76614,-9.62948
5.81241,0.15203,-0.82765,-9.83089
5.82245,0.19632,-0.84126,-9.81488
5.83248,0.35733,-0.82121,-9.62155
5.84252,0.55441,-0.73278,-9.36058
5.85256,0.65586,-0.62519,-9.22261
5.86259,0.70823,-0.59316,-9.36881
5.87263,0.60678,-0.61247,-9.64429
5.88267,0.46418,-0.62953,-9.8077
5.8927,0.4323,-0.70928,-9.97769
5.90274,0.55201,-0.7642,-10.06283
5.91278,0.6828,-0.68863,-9.95359
5.92281,0.76016,-0.63282,-9.86576
5.93285,0.81313,-0.61965,-9.80051
5.94289,0.8266,-0.6388,-9.77133
5.95292,0.75507,-0.67531,-9.76101
5.96296,0.7024,-0.74953,-9.76864
5.973,0.70479,-0.80685,-9.95614
5.98303,0.75911,-0.7826,-10.16383
5.99307,0.84336,-0.67127,-10.21561
6.00311,0.9303,-0.50802,-10.16204
6.01314,1.00616,-0.44353,-10.0317
6.02318,1.01245,-0.45759,-9.98128
6.03322,1.00916,-0.54079,-10.0332
6.04325,0.9692,-0.56937,-9.98756
6.05329,0.9309,-0.59376,-9.96811
6.06333,0.90217,-0.61531,-9.99504
6.07336,0.86775,-0.64449,-9.99789
6.0834,0.845,-0.63731,-9.91424
6.09344,0.88137,-0.63776,-9.77253
6.10347,0.91608,-0.65481,-9.70699
6.11351,0.93075,-0.64,-9.68589
6.12354,0.89603,-0.60139,-9.68694
6.13358,0.80116,-0.60768,-9.67706
6.14362,0.78275,-0.63776,-9.70624
6.15365,0.7835,-0.64808,-9.80441
6.16369,0.80116,-0.65047,-9.87069
6.17373,0.85623,-0.5794,-9.86187
6.18376,0.92566,-0.51101,-9.77777
6.1938,0.97713,-0.49635,-9.67901
6.20384,0.95828,-0.48976,-9.63038
6.21387,0.89947,-0.5369,-9.66464
6.22391,0.85084,-0.56743,-9.67033
6.23395,0.86924,-0.61516,-9.73093
6.24398,0.90905,-0.57925,-9.73856
6.25402,0.96202,-0.48019,-9.75398
6.26406,0.99479,-0.36946,-9.78765
6.27409,0.95259,-0.35913,-9.71223
6.28413,0.88436,-0.4317,-9.68874
6.29417,0.79233,-0.56638,-9.62439
6.3042,0.76599,-0.66439,-9.67886
6.31424,0.74699,-0.68175,-9.81563
6.32428,0.7657,-0.60708,-9.89
6.33431,0.7838,-0.5366,-9.84795
6.34435,0.75148,-0.54678,-9.77478
6.35439,0.71946,-0.56533,-9.61033
6.36442,0.67202,-0.63117,-9.53745
6.37446,0.69537,-0.73577,-9.60584
6.38449,0.7425,-0.74205,-9.79603
6.39453,0.77991,-0.61621,-9.94387
6.40457,0.78171,-0.4528,-9.93549
6.4146,0.75657,-0.39549,-9.80141
6.42464,0.70599,-0.44906,-9.7224
6.43468,0.69432,-0.54947,-9.74994
6.44471,0.6617,-0.63746,-10.00058
6.45475,0.64928,-0.62848,-10.32036
6.46479,0.61815,-0.61247,-10.43243
6.47482,0.58419,-0.62608,-10.31467
6.48486,0.56518,-0.68908,-10.06477
6.4949,0.55964,-0.76495,-9.77687
6.50493,0.62908,-0.81627,-9.82176
6.51497,0.79951,-0.7446,-10.24943
6.52501,0.84889,-0.56324,-10.77735
6.53504,0.76794,-0.45071,-11.20232
6.54508,0.49171,-0.43066,-11.83544
6.55512,0.06809,-0.42886,-12.73251
6.56515,-0.33309,-0.55545,-13.89445
6.57519,-0.79473,-0.6189,-14.89822
6.58523,-1.19037,-0.57805,-15.58087
6.59526,-1.33761,-0.69701,-16.06405
6.6053,-1.43083,-0.74879,-16.16939
6.61534,-1.5694,-0.59002,-16.07078
6.62537,-1.74208,-0.42557,-16.15637
6.63541,-1.96534,-0.34417,-16.51011
6.64545,-2.38029,-0.56249,-16.91608
6.65548,-2.79343,-0.96771,-16.84815
6.66552,-3.00098,-1.24992,-16.79473
6.67556,-3.0131,-1.32773,-16.66694
6.68559,-2.81229,-1.27925,-15.82837
6.69563,-2.53351,-1.17555,-14.52757
6.70566,-2.23873,-1.17376,-13.46275
6.7157,-2.03178,-1.27716,-12.87766
6.72574,-1.96175,-1.23316,-12.79806
6.73577,-2.0421,-1.15775,-13.04735
6.74581,-2.11064,-0.92386,-13.31116
6.75585,-2.05827,-0.71482,-13.46723
6.76588,-1.78129,-0.63761,-13.16033
6.77592,-1.3017,-0.55725,-12.37174
6.78596,-0.8462,-0.52209,-11.39341
6.79599,-0.52209,-0.51131,-10.37303
6.80603,-0.23209,-0.59376,-9.55765
6.81607,0.06554,-0.6412,-8.92543
6.8261,0.29,-0.64763,-8.50226
6.83614,0.3491,-0.75357,-8.41861
6.84618,0.34895,-0.96352,-8.75754
6.85621,0.25738,-1.20877,-9.06624
6.86625,0.11732,-1.42051,-9.11891
6.87629,0.03546,-1.45822,-8.90344
6.88632,0.16565,-1.34539,-8.074
6.89636,0.4127,-1.16343,-7.27089
6.9064,0.73577,-1.04133,-6.88228
6.91643,1.14937,-0.88122,-6.80357
6.92647,1.75959,-0.60917,-6.53886
6.93651,2.37939,-0.24316,-5.90081
6.94654,2.65966,0.03741,-5.31722
6.95658,2.4961,0.09801,-5.12165
6.96662,2.13668,-0.33938,-5.34116
6.97665,1.54246,-0.93479,-5.67546
6.98669,0.90845,-1.37622,-6.39506
6.99673,0.79996,-1.72083,-6.9387
7.00676,0.9912,-1.64347,-7.25069
7.0168,1.3632,-1.26773,-7.66593
7.02683,1.86149,-0.83617,-7.60967
7.03687,2.28946,-0.47166,-6.96099
7.04691,2.58514,-0.41629,-6.0509
7.05694,2.75079,-0.58493,-5.40117
7.06698,2.91584,-0.88406,-4.63443
7.07702,2.42338,-0.87927,-5.31962
7.08705,1.9209,-1.49024,-6.00675
7.09709,1.55743,-2.13174,-6.28089
7.10713,1.29856,-2.25249,-7.12051
7.11716,1.07305,-2.21658,-8.19041
7.1272,0.81089,-2.10705,-8.40036
7.13724,0.76944,-2.06605,-8.00142
7.14727,0.91608,-2.17753,-7.52737
7.15731,0.97085,-2.29379,-7.00947
7.16735,0.8869,-2.29933,-6.81495
7.17738,0.65826,-2.30292,-6.82303
7.18742,0.29374,-2.31205,-6.8739
7.19746,-0.16161,-2.42024,-7.11093
7.20749,-0.63626,-2.54923,-7.41888
7.21753,-0.93613,-2.73193,-7.74539
7.22757,-1.1995,-2.93155,-7.81587
7.2376,-1.41886,-3.03061,-7.64588
7.24764,-1.57314,-3.08179,-7.49789
7.25768,-1.60067,-3.10573,-7.28406
7.26771,-1.47992,-3.1774,-7.05077
7.27775,-1.29751,-3.15047,-6.89036
7.28779,-1.15715,-2.98392,-6.65693
7.29782,-1.07919,-2.84356,-6.33311
7.30786,-1.07305,-2.7879,-6.08965
7.3179,-0.98566,-2.7867,-5.99134
7.32793,-0.90591,-2.74495,-6.01259
7.33797,-0.89259,-2.67717,-6.2363
7.34801,-0.93344,-2.55581,-6.46539
7.35804,-0.94257,-2.40961,-6.56146
7.36808,-1.04462,-2.17962,-6.7307
7.37812,-1.1983,-1.91955,-6.78906
7.38815,-1.30828,-1.78293,-6.82228
7.39819,-1.44221,-1.69061,-6.84353
7.40822,-1.53603,-1.56282,-6.72816
7.41826,-1.5085,-1.5073,-6.49307
7.4283,-1.3816,-1.44625,-6.39401
7.43833,-1.22658,-1.34629,-6.337
7.44837,-0.98866,-1.25696,-6.23076
7.45841,-0.64299,-1.1573,-6.0708
7.46844,-0.15398,-1.08712,-5.97353
7.47848,0.19917,-0.94287,-5.9234
7.48852,0.39519,-0.69776,-5.86968
7.49855,0.45146,-0.44936,-5.9026
7.50859,0.31244,-0.32516,-6.14352
7.51863,0.10579,-0.46597,-6.34718
7.52866,-0.08664,-0.82585,-6.42005
7.5387,-0.32022,-1.22269,-6.39566
7.54874,-0.50248,-1.58825,-6.36723
7.55877,-0.64793,-1.88169,-6.34927
7.56881,-0.72559,-2.13757,-6.26982
7.57885,-0.69926,-2.39734,-6.0913
7.58888,-0.71766,-2.52124,-6.01408
7.59892,-0.66304,-2.54803,-6.12542
7.60896,-0.57985,-2.52454,-6.29062
7.61899,-0.63087,-2.36412,-6.45222
7.62903,-0.82585,-2.07787,-6.74117
7.63907,-1.00751,-1.72368,-7.31563
7.6491,-1.01185,-1.48515,-8.00935
7.65914,-0.87807,-1.39163,-8.38644
7.66918,-0.70988,-1.41183,-8.51109
7.67921,-0.63057,-1.45582,-8.73869
7.68925,-0.73337,-1.39956,-9.53356
7.69929,-1.01754,-1.26623,-10.92085
7.70932,-0.93494,-1.44909,-12.04882
7.71936,-0.45654,-1.89755,-12.31772
7.7294,0.03786,-2.14221,-11.88497
7.73943,0.42003,-1.88154,-11.32517
7.74947,0.6602,-1.32489,-11.24931
7.75951,0.81253,-0.84276,-12.06678
7.76954,0.90246,-0.6792,-12.85701
7.77958,0.99599,-0.93524,-13.09972
7.78962,1.1148,-1.36844,-12.80479
7.79965,1.04851,-1.68133,-12.24215
7.80969,0.69671,-1.95726,-11.84651
7.81972,0.04235,-2.26087,-11.91534
7.82976,-0.81059,-2.4156,-12.73431
7.8398,-1.4654,-2.60729,-13.86168
7.84983,-1.70048,-2.88441,-14.50841
7.85987,-1.60816,-2.82187,-14.56587
7.86991,-1.37652,-2.32193,-14.31972
7.87994,-1.18303,-1.65769,-14.44138
7.88998,-1.17899,-1.10807,-14.6775
7.90002,-1.29541,-0.81582,-14.70474
7.91005,-1.35317,-0.86371,-14.60358
7.92009,-1.41617,-0.98207,-14.2877
7.93013,-1.38295,-1.16583,-14.08644
7.94016,-1.26683,-1.34704,-13.73464
7.9502,-1.12617,-1.36694,-13.37027
7.96024,-0.96756,-1.34464,-13.13878
7.97027,-0.77497,-1.217,-13.06306
7.98031,-0.5773,-1.06003,-12.95742
7.99035,-0.43739,-0.8052,-12.77366
8.00038,-0.33923,-0.58748,-12.76035
8.01042,-0.29673,-0.5149,-12.70079
8.02046,-0.29314,-0.46163,-12.47304
8.03049,-0.43589,-0.50518,-12.15012
8.04053,-0.6394,-0.64434,-11.75628
8.05057,-0.76599,-0.84396,-11.30048
8.0606,-0.87284,-0.98881,-11.0232
8.07064,-0.88047,-1.07305,-11.00959
8.08068,-0.79562,-1.01469,-11.04505
8.09071,-0.69043,-0.84216,-10.93477
8.10075,-0.53256,-0.69881,-10.58447
8.11079,-0.4139,-0.67606,-10.15366
8.12082,-0.36197,-0.74505,-9.8059
8.13086,-0.30287,-0.90187,-9.6407
8.1409,-0.287,-1.06422,-9.63382
8.15093,-0.22311,-1.18378,-9.77657
8.16097,-0.13782,-1.14188,-9.94806
8.17101,-0.09188,-0.9891,-9.92771
8.18104,-0.02559,-0.88316,-9.87488
8.19108,0.03307,-0.87179,-9.71791
8.20112,0.07168,-0.93209,-9.59865
8.21115,0.06539,-1.05854,-9.71268
8.22119,0.09038,-1.13949,-9.79498
8.23123,0.18046,-1.14862,-9.91065
8.24126,0.34791,-1.072,-10.13346
8.2513,0.56668,-0.96561,-10.11655
8.26134,0.73307,-0.84815,-9.85079
8.27137,0.87433,-0.80161,-9.67138
8.28141,1.02711,-0.76989,-9.55137
8.29144,1.16867,-0.78859,-9.59761
8.30148,1.22119,-0.77677,-9.61975
8.31152,1.27252,-0.85877,-9.55855
8.32155,1.27805,-0.96771,-9.52189
8.33159,1.23212,-1.13635,-9.60614
8.34163,1.16553,-1.32908,-9.74335
8.35166,1.15071,-1.45567,-9.7872
8.3617,1.14548,-1.5281,-9.80246
8.37174,1.10702,-1.58975,-9.81653
8.38177,1.13799,-1.63898,-9.62155
8.39181,1.25396,-1.66202,-9.54119
8.40185,1.48291,-1.64137,-9.47101
8.41188,1.88992,-1.53394,-9.36402
8.42192,2.35545,-1.31053,-9.33559
8.43196,2.74181,-1.16987,-9.29519
8.44199,3.04991,-1.18094,-9.17892
8.45203,3.37702,-1.31606,-8.8976
8.46207,3.75156,-1.45044,-8.52665
8.4721,3.97662,-1.39657,-8.16348
8.48214,4.14736,-1.3011,-8.09928
8.49218,4.22322,-1.31861,-8.19864
8.50221,4.21424,-1.39911,-8.2166
8.51225,4.14721,-1.50146,-8.1774
8.52229,3.87936,-1.633,-8.24922
8.53232,3.58951,-1.66292,-8.36295
8.54236,3.54551,-1.54321,-8.29202
8.5524,3.97333,-1.39717,-8.29247
8.56243,4.71822,-1.04821,-7.96012
8.57247,5.27473,-0.28955,-7.57196
8.58251,5.37423,0.67891,-7.61057
8.59254,4.86996,1.5073,-8.17515
8.60258,3.97602,1.91641,-9.33514
8.61262,3.13206,1.80029,-10.80578
8.62265,2.20566,1.49323,-12.2224
8.63269,1.22059,1.06692,-13.16407
8.64273,0.36123,0.5381,-13.28213
8.65276,-0.14485,-0.12824,-12.62118
8.6628,-0.30077,-0.98222,-11.12152
8.67284,-0.33788,-2.00829,-9.41385
8.68287,-0.45984,-3.02073,-8.31342
8.69291,-0.59646,-3.48252,-8.57708
8.70295,-0.86236,-2.99949,-9.12146
8.71298,-1.50131,-1.7949,-9.69158
8.72302,-2.28332,-0.7449,-10.36629
8.73306,-3.25596,-0.09951,-10.93671
8.74309,-4.29086,0.10669,-11.53871
8.75313,-4.71224,-0.22221,-12.03879
8.76316,-4.44962,-0.99389,-12.23721
8.7732,-4.03842,-1.49024,-12.04209
8.78324,-3.69321,-1.63883,-11.28597
8.79327,-3.47354,-1.62267,-10.30794
8.80331,-3.40066,-1.54665,-9.47894
8.81335,-3.21586,-1.59978,-9.30028
8.82338,-2.95953,-1.6104,-9.45066
8.83342,-2.70081,-1.49488,-9.52997
8.84346,-2.39345,-1.49413,-9.81533
8.85349,-2.08505,-1.50954,-10.15112
8.86353,-1.8175,-1.37861,-10.22294
8.87357,-1.54875,-1.19845,-10.08049
8.8836,-1.29571,-1.19171,-9.89808
8.89364,-1.24618,-1.3852,-9.66494
8.90368,-1.20354,-1.27701,-9.12355
8.91434,-1.20354,-1.27701,-9.12355
8.92438,-1.20354,-1.27701,-9.12355
8.93441,-1.4883,-1.02517,-9.36597
8.94445,-1.74627,-0.95125,-9.78795
8.95449,-1.85012,-0.86775,-9.98203
8.96452,-1.65365,-0.83707,-9.76774
8.97456,-1.26354,-0.96965,-9.46099
8.9846,-0.86266,-1.08143,-9.16426
8.99463,-0.47974,-1.18438,-9.05921
9.00467,-0.2056,-1.2167,-9.16725
9.01471,-0.16834,-1.14982,-9.39096
9.02474,-0.29,-1.0343,-9.86456
9.03478,-0.36826,-0.94391,-10.29821
9.04482,-0.33549,-0.87493,-10.41792
9.05485,-0.18211,-0.7865,-10.28235
9.06489,0.10849,-0.64344,-10.01779
9.07493,0.35808,-0.49979,-9.87788
9.08496,0.54782,-0.43619,-9.87204
9.095,0.58448,-0.42542,-9.84062
9.10504,0.41869,-0.43769,-9.74096
9.11507,0.17837,-0.56907,-9.55197
9.12511,0.02918,-0.80221,-9.44049
9.13515,-0.06315,-1.10507,-9.54583
9.14518,-0.11896,-1.26384,-9.71612
9.15522,-0.12659,-1.27267,-9.8692
9.16526,-0.16251,-1.1995,-9.92067
9.17529,-0.13632,-1.10328,-9.91708
9.18533,-0.02424,-1.0337,-9.94701
9.19537,0.18076,-0.91997,-9.87833
9.2054,0.39474,-0.80909,-9.73677
9.21544,0.60184,-0.73816,-9.59491
9.22548,0.72859,-0.73263,-9.43899
9.23551,0.73397,-0.76106,-9.51171
9.24555,0.62743,-0.83303,-9.48433
9.25559,0.47345,-0.89932,-9.49286
9.26562,0.33893,-0.98013,-9.6422
9.27566,0.26426,-1.06916,-9.786
9.2857,0.246,-1.0931,-9.8879
9.29573,0.33354,-1.04896,-9.86516
9.30577,0.51236,-0.96606,-9.71537
9.3158,0.65751,-0.89498,-9.59835
9.32584,0.73771,-0.90276,-9.58863
9.33588,0.67382,-0.908,-9.46338
9.34592,0.55156,-0.92521,-9.34607
9.35595,0.42288,-0.98402,-9.39739
9.36599,0.33743,-0.99554,-9.60703
9.37602,0.30676,-0.97579,-9.85379
9.38606,0.26097,-0.86042,-10.03709
9.3961,0.287,-0.6406,-10.19062
9.40614,0.38711,-0.46462,-10.26484
9.41617,0.41928,-0.3304,-10.281
9.42621,0.44113,-0.22072,-10.22983
9.43624,0.49171,-0.20231,-10.06807
9.44628,0.52328,-0.28057,-9.84196
9.45632,0.52657,-0.43036,-9.70789
9.46635,0.48408,-0.52089,-9.76326
9.47639,0.38741,-0.60005,-10.00627
9.48643,0.1661,-0.65302,-10.07031
9.49646,-0.00329,-0.66858,-9.93474
9.5065,0.01272,-0.68699,-9.79363
9.51654,0.1851,-0.67531,-9.7242
9.52657,0.30571,-0.69357,-9.82251
9.53661,0.30361,-0.76315,-9.94596
9.54665,0.12674,-0.78515,-9.92292
9.55668,-0.05686,-0.75028,-9.86411
9.56672,-0.16565,-0.70554,-9.89329
9.57676,-0.25079,-0.65721,-10.07106
9.58679,-0.25768,-0.65915,-10.24524
9.59746,-0.15473,-0.6819,-10.71285
9.60749,-0.15473,-0.6819,-10.71286
9.61753,-0.19603,-0.80819,-10.98026
9.62757,-0.29703,-0.91818,-11.0663
9.6376,-0.42946,-0.95095,-10.8809
9.64764,-0.50727,-0.99763,-10.83316
9.65768,-0.53002,-0.95319,-10.96215
9.66771,-0.54872,-0.85952,-11.12062
9.67775,-0.53914,-0.85159,-11.3533
9.68779,-0.59825,-0.87239,-11.50698
9.69782,-0.7,-0.86311,-11.66485
9.70786,-0.81193,-0.77527,-11.83678
9.7179,-0.91952,-0.70629,-12.19247
9.72793,-1.04642,-0.54737,-12.66368
9.73797,-1.21655,-0.40312,-13.07533
9.74801,-1.44311,-0.33339,-13.30817
9.75804,-1.71709,-0.23837,-13.43372
9.76808,-1.89217,-0.17597,-13.41052
9.77812,-1.90653,-0.17148,-13.21734
9.78815,-1.83186,-0.12345,-12.76768
9.79819,-1.80972,-0.23104,-12.76214
9.80823,-1.99242,-0.44278,-13.32478
9.81826,-2.30876,-0.62997,-13.97106
9.8283,-2.6227,-0.95484,-14.51395
9.83834,-2.96073,-1.15311,-14.64054
9.84837,-3.04932,-1.27506,-14.48148
9.85841,-3.04378,-1.24214,-14.17652
9.86845,-3.04827,-0.85653,-13.98782
9.87848,-3.06742,-0.64673,-14.13177
9.88852,-3.22095,-0.44053,-14.3709
9.89856,-3.48566,-0.15832,-14.5156
9.90859,-3.49928,0.19797,-14.56662
9.91863,-3.19177,0.60065,-14.44033
9.92867,-2.71966,0.99973,-14.28964
9.9387,-2.1054,1.34404,-14.17173
9.94874,-1.40794,1.67983,-13.69244
9.95878,-0.82271,1.89995,-12.72144
9.96881,-0.32591,1.99332,-11.6032
9.97885,0.03202,1.92628,-10.5921
9.98889,0.28686,1.64931,-9.75084
9.99892,0.44592,1.35392,-9.34861
10.00896,0.60888,1.05255,-9.39485
10.019,0.73996,0.70524,-9.59416
10.02903,0.80176,0.19154,-9.7673
10.03907,0.51266,-0.61097,-9.93444
10.04911,-0.06599,-1.14114,-10.03679
10.05914,-0.23927,-1.26938,-9.90436
10.06918,-0.25004,-1.14488,-9.53027
10.07922,-0.27264,-0.62698,-8.8771
10.08925,-0.13856,-0.28012,-8.35277
10.09929,0.09307,-0.07632,-7.94905
10.10933,0.33294,-0.00494,-7.48517
10.11936,0.76989,-0.03083,-7.24156
10.1294,1.25666,-0.08455,-7.06215
10.13944,1.69899,-0.02484,-6.81794
10.14947,2.07892,-0.08095,-6.26578
10.15951,2.13802,-0.10744,-5.43394
10.16955,1.99976,-0.24975,-4.80456
10.17958,1.84054,-0.31738,-4.63532
10.18962,1.67594,-0.495,-4.52788
10.19966,1.54351,-0.70883,-4.40189
10.20969,1.52271,-0.84845,-4.69997
10.21973,1.65125,-0.91653,-5.27847
10.22977,2.10376,-0.76076,-5.60812
10.2398,2.75213,-0.39938,-5.67037
10.24984,3.33198,0.09412,-5.52133
10.25987,3.53609,0.74684,-5.59719
10.26991,3.53609,0.74684,-5.59719
10.27995,3.09226,0.74415,-5.88121
10.28998,2.5995,0.53226,-6.22537
10.30002,2.311,0.06375,-6.56565
10.31006,1.99826,-0.31693,-6.65289
10.32009,1.81047,-0.6186,-6.7515
10.33013,1.72083,-0.7841,-6.84427
10.34017,1.61384,-0.77617,-6.78906
10.35021,1.55114,-0.74774,-6.80986
10.36024,1.61773,-0.75806,-6.88348
10.37028,1.72697,-0.79413,-6.94977
10.38032,1.6716,-0.7654,-7.12948
10.39035,1.36859,-0.68893,-7.43624
10.40039,1.02292,-0.7015,-7.80689
10.41043,0.65242,-0.71572,-8.18054
10.42046,0.29628,-0.70464,-8.42056
10.4305,0.05058,-0.81597,-8.42654
10.44053,-0.07527,-0.78635,-8.55418
10.45057,-0.05686,-0.74145,-8.87336
10.46061,-0.07242,-0.84635,-8.75679
10.47065,-0.26202,-0.98102,-8.36025
10.48068,-0.42392,-1.10148,-7.93902
10.49072,-0.6204,-1.21087,-7.43474
10.50075,-0.69327,-1.31172,-7.04269
10.51079,-0.79024,-1.38145,-7.12305
10.52083,-0.96606,-1.45493,-7.5148
10.53086,-1.12138,-1.50565,-7.79777
10.5409,-1.24858,-1.52481,-7.98347
10.55094,-1.4057,-1.50326,-8.04661
10.56097,-1.53289,-1.46585,-7.90012
10.57101,-1.68058,-1.39283,-7.77682
10.58105,-1.72831,-1.18528,-7.71352
10.59108,-1.63045,-1.08008,-7.54742
10.60112,-1.51792,-1.16762,-7.33194
10.61116,-1.46271,-1.25217,-7.23707
10.62119,-1.40166,-1.20683,-7.31533
10.63123,-1.35751,-0.91803,-7.48203
10.64127,-1.25785,-0.59631,-7.47904
10.6513,-1.07679,-0.37559,-7.34706
10.66134,-0.87299,-0.3494,-7.14594
10.67138,-0.76106,-0.38038,-6.97596
10.68141,-0.65751,-0.30526,-6.87779
10.69145,-0.45146,-0.21219,-6.73504
10.70149,-0.19528,-0.09233,-6.59618
10.71152,-0.10998,0.12704,-6.53827
10.72156,-0.24256,0.39459,-6.45941
10.7316,-0.43919,0.51984,-6.45177
10.74163,-0.45191,0.31499,-6.55054
10.75167,-0.33893,-0.11687,-6.65199
10.76171,-0.27758,-0.47315,-6.72202
10.77174,-0.42527,-0.59765,-6.78367
10.78178,-0.50697,-0.65766,-6.94498
10.79182,-0.38981,-0.87852,-7.08639
10.80185,-0.28192,-1.19531,-7.11721
10.81189,-0.40612,-1.42066,-6.86792
10.82193,-0.50503,-1.50341,-6.53213
10.83196,-0.54019,-1.3813,-6.56834
10.842,-0.72963,-1.06183,-7.14145
10.85204,-0.91653,-1.03684,-7.87483
10.86207,-1.06961,-1.35572,-8.59803
10.87211,-1.28464,-1.70123,-9.2892
10.88215,-1.47992,-1.97836,-10.01435
10.89218,-1.45253,-1.93481,-10.62262
10.90222,-1.23346,-1.52645,-10.66826
10.91226,-0.96681,-1.18259,-10.4242
10.92229,-0.62459,-1.01065,-10.27247
10.93233,-0.3286,-0.84665,-10.16099
10.94237,0.08634,-0.87568,-10.25407
10.9524,0.43515,-0.87523,-10.5508
10.96244,0.57117,-0.70255,-11.04281
10.97248,0.59915,-0.69761,-11.80371
10.98251,0.6385,-0.85398,-12.42411
10.99255,0.71467,-1.18438,-12.26624
11.00259,0.74774,-1.47333,-11.74386
11.01262,0.72993,-1.42246,-11.50863
11.02266,0.67636,-1.34105,-11.94677
11.0327,0.52822,-1.31127,-12.70244
11.04273,0.47375,-1.1971,-13.44793
11.05277,0.5797,-1.06931,-13.98199
11.06281,0.75986,-0.79682,-14.07372
11.07284,0.88511,-0.39564,-14.05277
11.08288,1.03011,-0.1221,-14.29862
11.09292,1.18947,-0.03681,-14.48103
11.10295,1.34913,0.04714,-14.3878
11.11299,1.45478,0.19273,-14.3058
11.12303,1.50012,0.37409,-14.2663
11.13306,1.5067,0.43949,-14.20136
11.1431,1.49623,0.34851,-14.18759
11.15314,1.45044,0.1034,-14.06803
11.16317,1.45298,-0.18854,-13.63692
11.17321,1.51224,-0.37185,-13.0873
11.18325,1.49638,-0.39235,-12.54786
11.19328,1.33611,-0.30062,-12.15327
11.20332,1.12767,-0.28895,-12.18888
11.21336,1.03534,-0.42273,-12.28959
11.22339,1.03489,-0.50353,-12.11212
11.23343,1.1148,-0.37185,-11.88467
11.24347,1.22374,-0.13138,-11.7268
11.2535,1.15296,0.04235,-11.54275
11.26354,0.96217,0.09801,-11.31664
11.27358,0.73876,-0.06599,-11.05807
11.28361,0.52373,-0.34028,-10.82643
11.29365,0.36018,-0.52164,-10.71689
11.30369,0.24107,-0.5565,-10.60946
11.31372,0.17418,-0.46747,-10.49693
11.32376,0.11268,-0.39759,-10.4257
11.3338,0.05342,-0.32322,-10.31572
11.34383,-0.02319,-0.24989,-10.1764
11.35387,-0.12001,-0.29284,-10.06477
11.36391,-0.17942,-0.3714,-10.14124
11.37394,-0.16146,-0.46522,-10.25856
11.38398,-0.09337,-0.49051,-10.0974
11.39402,-0.04833,-0.4531,-9.82895
11.40405,-0.03681,-0.48902,-9.65761
11.41409,-0.05941,-0.50278,-9.5159
11.42413,-0.06509,-0.52164,-9.46952
11.43416,-0.11896,-0.55545,-9.5168
11.4442,-0.11402,-0.65975,-9.6431
11.45424,-0.05761,-0.75851,-9.65911
11.46427,-0.00224,-0.73173,-9.50259
11.47431,0.0205,-0.69731,-9.2482
11.48435,0.03561,-0.74789,-9.06998
11.49438,-0.00778,-0.85997,-8.97496
11.50442,-0.12644,-0.85263,-9.1035
11.51446,-0.22221,-0.83902,-9.41071
11.52449,-0.29583,-0.91189,-9.63008
11.53453,-0.3087,-0.98117,-9.54808
11.54457,-0.27848,-1.0518,-9.50453
11.5546,-0.27788,-1.06003,-9.50842
11.56464,-0.35344,-1.02936,-9.4333
11.57468,-0.38442,-1.04462,-9.31329
11.58471,-0.3304,-1.04267,-9.33918
11.59475,-0.30062,-1.09924,-9.40712
11.60479,-0.28955,-1.13021,-9.45814
11.61482,-0.31125,-1.0111,-9.64609
11.62486,-0.331,-0.79817,-10.00761
11.6349,-0.26276,-0.69013,-10.29163
11.64493,-0.19513,-0.67921,-10.28744
11.65497,-0.2496,-0.73382,-10.04442
11.66501,-0.29209,-0.91159,-9.80994
11.67504,-0.33534,-1.07515,-9.68395
11.68508,-0.39474,-1.16807,-9.64145
11.69512,-0.34028,-1.17166,-9.67332
11.70515,-0.24585,-1.07485,-9.70954
11.71519,-0.13886,-0.94421,-9.82146
11.72523,-0.03666,-0.87987,-9.94701
11.73526,0.03651,-0.86087,-9.91125
11.7453,0.09966,-0.82226,-9.76415
11.75534,0.17448,-0.82809,-9.70924
11.76537,0.15802,-0.85069,-9.75084
11.77541,0.14111,-0.8462,-9.86665
11.78545,0.14141,-0.90396,-10.05116
11.79548,0.23987,-1.00586,-10.14169
11.80552,0.36616,-1.05285,-10.08527
11.81556,0.54872,-1.14473,-9.9084
11.82559,0.83647,-1.25022,-9.86007
11.83563,1.14024,-1.33372,-9.83209
11.84567,1.45912,-1.3427,-9.69412
11.8557,1.76348,-1.24903,-9.62319
11.86574,1.95876,-1.08083,-9.5394
11.87578,1.8989,-0.97983,-9.4363
11.88581,1.70692,-1.06213,-9.51201
11.89585,1.50146,-1.24154,-9.76071
11.90589,1.31217,-1.47917,-10.02991
11.91592,1.19875,-1.58975,-10.18613
11.92596,1.34345,-1.61728,-10.18763
11.936,1.71096,-1.6083,-10.18299
11.94604,2.11662,-1.52585,-9.93983
11.95607,2.45121,-1.2812,-9.69188
11.96611,2.43595,-1.04686,-9.56828
11.97615,2.68151,-1.06901,-9.29833
11.98618,2.94337,-1.04297,-9.12385
11.99622,2.90447,-0.93748,-9.0622
12.00626,2.66849,-0.86595,-8.93636
12.01629,2.46992,-0.94915,-8.97586
12.02633,2.31669,-1.08098,-9.04978
12.03637,2.25803,-1.10911,-9.07328
12.0464,2.36682,-1.02726,-9.17533
12.05644,2.43296,-0.90531,-9.4158
12.06648,2.39226,-0.80445,-9.67706
12.07651,2.29918,-0.70868,-9.81907
12.08655,2.12725,-0.61501,-9.98786
12.09659,1.81974,-0.58538,-10.35238
12.10662,1.58915,-0.71751,-10.64821
12.11666,1.49413,-0.87044,-10.7338
12.1267,1.35512,-1.03774,-10.88195
12.13673,1.2372,-1.16029,-10.51758
12.14677,1.1974,-1.12737,-9.75772
12.15681,1.05345,-1.04447,-9.23578
12.16684,0.82226,-0.98462,-8.90433
12.17688,0.56473,-0.97818,-8.75245
12.18692,0.26187,-0.92955,-8.70472
12.19695,-0.03112,-0.94661,-9.00534
12.20699,-0.27982,-0.98925,-9.48358
12.21703,-0.46762,-1.02666,-9.92965
12.22706,-0.60783,-1.0958,-10.14184
12.2371,-0.70614,-1.18289,-10.14079
12.24714,-0.90695,-1.22882,-9.86381
12.25717,-1.08442,-1.24349,-9.66629
12.26721,-1.33956,-1.16508,-9.50707
12.27725,-1.48186,-1.20398,-9.48194
12.28728,-1.64826,-1.25636,-9.50648
12.29732,-1.89815,-1.23391,-9.46009
12.30736,-1.95172,-1.16568,-9.41041
12.31739,-1.84129,-1.08876,-9.46099
12.32743,-1.66128,-0.9716,-9.50229
12.33747,-1.50101,-0.76599,-9.6226
12.3475,-1.45074,-0.61621,-9.97439
12.35754,-1.57344,-0.58912,-10.21082
12.36758,-1.80807,-0.6587,-10.221
12.37761,-1.86957,-0.73053,-10.2216
12.38765,-1.87167,-0.74325,-10.21531
12.39769,-1.84309,-0.65616,-10.2418
12.40772,-1.78937,-0.6587,-10.37542
12.41776,-1.90848,-0.63177,-10.46865
12.4278,-2.16002,-0.68833,-10.52117
12.43783,-2.31415,-0.78096,-10.61724
12.44787,-2.20132,-0.86176,-10.66482
12.45791,-2.09986,-0.89827,-10.67724
12.46794,-1.96235,-0.886,-10.68577
12.47798,-1.96968,-0.93658,-10.50785
12.48802,-2.02505,-1.11794,-10.28923
12.49805,-2.09238,-1.35706,-10.0136
12.50809,-2.13129,-1.56745,-9.7872
12.51813,-2.14176,-1.77829,-9.67183
12.52816,-2.04046,-1.89726,-9.65177
12.5382,-1.75585,-1.88903,-9.58743
12.54824,-1.41123,-1.78293,-9.53386
12.55827,-1.15849,-1.61309,-9.42926
12.56831,-0.91758,-1.48665,-9.42118
12.57835,-0.6605,-1.35497,-9.46144
12.58838,-0.41569,-1.22209,-9.47386
12.59842,-0.24092,-1.15535,-9.43615
12.60846,-0.13767,-1.10881,-9.41625
12.61849,-0.08903,-1.13156,-9.37255
12.62853,-0.17867,-1.21925,-9.37764
12.63857,-0.21039,-1.38026,-9.47056
12.6486,-0.11537,-1.45478,-9.53596
12.65864,-0.02843,-1.41153,-9.5174
12.66868,0.04998,-1.34659,-9.49017
12.67871,0.07108,-1.34479,-9.45336
12.68875,0.02948,-1.40166,-9.3718
12.69879,0.06734,-1.48889,-9.35504
12.70882,0.17074,-1.51343,-9.31599
12.71886,0.27144,-1.41916,-9.24147
12.7289,0.26291,-1.30679,-9.21498
12.73893,0.24795,-1.29182,-9.46383
12.74897,0.34072,-1.33477,-9.76894
12.75901,0.48228,-1.29856,-9.80216
12.76904,0.61905,-1.20773,-9.69263
12.77908,0.6822,-1.12138,-9.57501
12.78912,0.69806,-1.11061,-9.42073
12.79915,0.69567,-1.14563,-9.26347
12.80919,0.7232,-1.24229,-9.23818
12.81923,0.74864,-1.27536,-9.41654
12.82926,0.74864,-1.22149,-9.54164
12.8393,0.60603,-1.13216,-9.65237
12.84934,0.43739,-1.1549,-9.90586
12.85937,0.44951,-1.23316,-10.1161
12.86941,0.53855,-1.26429,-10.18523
12.87945,0.59945,-1.24858,-10.03215
12.88948,0.62399,-1.16792,-9.86246
12.89952,0.67277,-1.10014,-9.78645
12.91019,0.70898,-1.03474,-9.74635
12.92022,0.78126,-0.98192,-9.73871
12.93026,0.72874,-0.95409,-9.74844
12.9403,0.72559,-0.99748,-9.79872
12.95033,0.69911,-1.06467,-9.87204
12.96037,0.64494,-1.10642,-9.85992
12.97041,0.52852,-1.16134,-9.78645
12.98044,0.44098,-1.18708,-9.7016
12.99048,0.4558,-1.18962,-9.70415
13.00052,0.52508,-1.12049,-9.75488
13.01055,0.58718,-0.97833,-9.83254
13.02059,0.63611,-0.88526,-9.97664
13.03063,0.659,-0.83737,-10.02512
13.04066,0.60259,-0.88032,-9.99115
13.0507,0.48662,-0.97459,-9.90212
13.06074,0.40148,-1.04956,-9.78645
13.07077,0.36063,-1.1166,-9.69158
13.08081,0.37978,-1.16598,-9.64429
13.09085,0.41689,-1.16403,-9.71013
13.10088,0.40836,-1.10358,-9.78361
13.11092,0.31753,-1.03953,-9.83134
13.12096,0.28536,-1.05869,-9.89643
13.13099,0.23583,-1.08143,-9.9301
13.14103,0.26456,-1.09744,-9.90631
13.15107,0.3521,-1.08876,-9.86576
13.1611,0.40582,-1.02966,-9.76355
13.17114,0.48498,-0.99644,-9.75069
13.18118,0.48782,-0.97803,-9.75622
13.19121,0.44637,-0.99763,-9.79288
13.20125,0.36497,-1.03908,-9.85992
13.21129,0.36586,-1.0922,-9.89718
13.22132,0.38621,-1.10911,-9.87653
13.23136,0.34761,-1.09071,-9.85229
13.2414,0.36736,-1.05554,-9.80231
13.25143,0.42991,-1.03579,-9.76954
13.26147,0.48752,-1.0135,-9.71133
13.27151,0.50503,-1.02891,-9.63965
13.28154,0.38217,-1.10537,-9.67362
13.29158,0.19124,-1.20862,-9.89883
13.30162,0.14635,-1.23646,-9.96302
13.31165,0.20081,-1.21072,-9.92606
13.32169,0.27638,-1.12662,-9.79288
13.33173,0.39609,-1.05689,-9.65178
13.34176,0.50383,-1.08487,-9.54314
13.3518,0.5357,-1.1157,-9.55137
13.36184,0.5357,-1.12782,-9.44662
13.37187,0.54558,-1.16927,-9.4556
13.38191,0.52433,-1.17076,-9.38617
13.39195,0.44383,-1.18588,-9.27678
13.40198,0.4739,-1.30364,-9.45964
13.41202,0.4739,-1.30364,-9.45964
13.42206,0.4953,-1.32998,-9.71028
13.43209,0.48483,-1.28554,-9.72136
13.44213,0.42886,-1.21506,-9.71507
13.45217,0.36616,-1.18079,-9.70535
13.4622,0.38906,-1.19201,-9.65178
13.47224,0.46732,-1.20294,-9.68814
13.48228,0.54019,-1.15984,-9.73812
13.49231,0.59436,-1.07395,-9.7842
13.50235,0.6605,-1.00497,-9.77478
13.51239,0.69013,-1.00332,-9.79169
13.52242,0.69971,-1.08412,-9.76041
13.53246,0.60558,-1.11914,-9.65282
13.5425,0.49844,-1.06991,-9.41071
13.55254,0.32412,-1.01065,-9.28681
13.56257,0.30421,-1.00212,-9.29998
13.57261,0.40477,-1.02188,-9.36208
13.58265,0.41854,-0.98087,-9.4345
13.59331,0.52598,-0.98402,-9.26361
13.60335,0.46522,-1.02532,-9.05143
13.61338,0.40462,-1.12572,-8.90793
13.62342,0.40477,-1.24947,-8.8141
13.63346,0.45131,-1.32729,-8.80393
13.64349,0.4769,-1.32384,-8.84717
13.65353,0.45191,-1.27267,-8.81725
13.66357,0.40552,-1.22404,-8.72716
13.6736,0.38861,-1.22987,-8.74871
13.68364,0.36542,-1.24917,-8.86917
13.69368,0.28386,-1.20009,-8.94309
13.70371,0.21054,-1.16987,-9.04933
13.71375,0.16071,-1.16613,-9.23518
13.72379,0.15487,-1.1169,-9.43734
13.73382,0.14096,-1.06796,-9.57785
13.74386,0.02798,-1.05869,-9.67377
13.7539,-0.12061,-1.06258,-9.85423
13.76393,-0.15413,-1.04791,-10.18643
13.77397,-0.06779,-1.0129,-10.51952
13.78401,0.08065,-0.94242,-10.80099
13.79404,0.1667,-0.84321,-10.8794
13.80408,0.16849,-0.77587,-10.99328
13.81412,0.19722,-0.8064,-11.24691
13.82415,0.16909,-0.87523,-11.56908
13.83419,0.09771,-0.95484,-11.88063
13.84423,0.00793,-0.9683,-12.12992
13.85426,-0.08275,-0.90561,-12.44431
13.8643,-0.10505,-0.84575,-12.80673
13.87434,-0.18061,-0.83977,-13.05334
13.88437,-0.30601,-0.99045,-13.49282
13.89441,-0.61187,-1.11001,-13.69678
13.90445,-0.80146,-1.16672,-13.72072
13.91448,-0.84635,-1.09879,-13.68047
13.92452,-0.9291,-0.89513,-13.47651
13.93456,-1.16792,-0.72888,-13.31924
13.94459,-1.4666,-0.7036,-13.28438
13.95463,-1.86239,-0.73771,-13.32687
13.96467,-2.19324,-0.81044,-13.28258
13.9747,-2.42308,-0.8887,-13.25939
13.98474,-2.55192,-0.97564,-13.32672
13.99478,-2.69871,-0.96292,-13.45018
14.00481,-2.83937,-0.88092,-13.53068
14.01485,-2.99515,-0.69088,-13.44269
14.02489,-3.04917,-0.46507,-13.19041
14.03493,-2.9115,-0.35584,-13.11604
14.04496,-2.67268,-0.32531,-13.01847
14.055,-2.50523,-0.23299,-12.66458
14.06504,-2.40632,-0.21488,-12.54622
14.07507,-2.29365,-0.30436,-12.75152
14.08511,-2.11947,-0.28431,-12.81811
14.09515,-2.02624,-0.13482,-12.55729
14.10518,-2.0243,-0.01751,-12.24589
14.11522,-2.03387,0.00539,-11.89469
14.12526,-2.07577,-0.07213,-11.59198
14.13529,-2.09552,-0.2487,-11.41286
14.14533,-1.80508,-0.48228,-11.4389
14.15536,-1.27012,-0.4971,-11.2321
14.1654,-0.79218,-0.48243,-11.07064
14.17544,-0.50473,-0.46732,-10.88404
14.18548,-0.29239,-0.38801,-10.41612
14.19551,-0.09517,-0.42916,-9.81308
14.20555,0.11208,-0.57341,-9.15887
14.21559,0.26097,-0.45729,-8.82413
14.22562,0.32037,-0.37948,-8.67494
14.23566,0.4323,-0.43305,-8.41053
14.2457,0.60259,-0.48183,-8.06472
14.25573,0.55516,-0.53795,-7.79103
14.26577,0.00224,-0.56922,-8.02402
14.27581,-0.28147,-0.76106,-8.22453
14.28584,-0.09607,-0.94631,-8.31506
14.29588,0.20186,-1.06781,-8.11874
14.30592,0.41375,-1.15071,-8.11515
14.31595,0.29688,-1.22628,-8.20523
14.32599,0.12764,-1.40225,-8.1138
14.33603,0.20381,-1.47902,-7.89967
14.34606,0.48513,-1.43847,-7.69856
14.3561,0.71093,-1.18064,-7.31668
14.36614,0.75477,-0.92252,-6.92508
14.37617,0.71632,-0.67127,-6.60276
14.38621,0.62908,-0.53989,-6.5661
14.39625,0.44966,-0.53615,-6.81914
14.40628,0.23403,-0.61037,-7.24545
14.41632,0.15577,-0.75387,-7.77996
14.42636,0.04115,-0.69103,-8.25521
14.43639,0.00988,-0.67876,-8.4873
14.44643,-0.09861,-0.88047,-8.85361
14.45647,-0.1839,-1.10852,-9.36268
14.46651,-0.3696,-1.19905,-9.79842
14.47654,-0.53136,-1.12557,-9.74575
14.48658,-0.44293,-0.99763,-9.19493
14.49662,-0.19288,-0.95469,-8.45004
14.50665,0.03935,-0.79877,-7.8645
14.51669,0.57326,-1.00407,-7.57735
14.52673,1.0961,-1.4464,-7.6369
14.53676,1.32265,-1.79131,-7.61117
14.5468,1.27401,-1.96534,-7.33823
14.55684,1.1371,-2.11393,-7.17572
14.56687,1.18573,-2.25025,-7.22585
14.57691,1.24319,-2.20701,-7.15208
14.58695,1.23212,-2.09642,-6.92164
14.59698,1.18184,-2.02953,-6.64002
14.60702,1.14024,-2.00769,-6.50145
14.61706,1.10477,-2.15882,-6.53333
14.62709,0.99449,-2.38388,-6.5649
14.63713,0.8688,-2.55895,-6.82512
14.64717,0.86101,-2.70186,-7.23288
14.6572,0.93987,-2.82815,-7.58468
14.66724,0.95918,-2.84925,-7.74644
14.67728,0.82645,-2.67372,-7.75048
14.68731,0.53301,-2.43236,-7.83039
14.69735,0.25842,-2.21119,-8.02432
14.70739,0.00988,-1.92988,-8.32494
14.71742,-0.11642,-1.67549,-8.69125
14.72746,-0.05252,-1.4021,-8.92259
14.7375,-0.00539,-1.16732,-8.91571
14.74753,-0.09607,-1.01903,-8.79031
14.75757,-0.23329,-0.92401,-8.70681
14.76761,-0.37035,-0.87194,-8.88533
14.77764,-0.42991,-0.88421,-9.22276
14.78768,-0.39474,-0.97309,-9.46218
14.79772,-0.38786,-1.02921,-9.51112
14.80776,-0.42886,-1.09011,-9.42283
14.81779,-0.45639,-1.19141,-9.19179
14.82783,-0.46283,-1.28299,-9.23309
14.83787,-0.43021,-1.32654,-9.50767
14.8479,-0.38427,-1.23705,-9.57411
14.85794,-0.44457,-1.06213,-9.31075
14.86798,-0.51625,-0.97683,-9.2081
14.87801,-0.61726,-1.08083,-9.33858
14.88805,-0.7036,-1.24349,-9.54089
14.89809,-0.74744,-1.35871,-9.69412
14.90812,-0.763,-1.42724,-9.63337
14.91816,-0.83034,-1.52556,-9.46832
14.9282,-0.88047,-1.63374,-9.38826
14.93823,-0.81014,-1.68342,-9.45351
14.94827,-0.6798,-1.67205,-9.57681
14.95831,-0.57895,-1.65739,-9.72091
14.96834,-0.5348,-1.6909,-9.89209
14.97838,-0.62788,-1.75285,-9.82027
14.98842,-0.77004,-1.80568,-9.73063
14.99845,-0.83348,-1.76168,-9.69397
15.00849,-0.74325,-1.6083,-9.62275
15.01853,-0.62908,-1.51269,-9.67497
15.02856,-0.70225,-1.44744,-9.8481
15.0386,-0.88541,-1.37203,-10.12613
15.04864,-1.10433,-1.2987,-10.2599
15.05867,-1.27476,-1.30319,-10.34071
15.06871,-1.39851,-1.37517,-10.34475
15.07875,-1.41901,-1.47408,-10.34445
15.08878,-1.3204,-1.45358,-10.33278
15.09882,-1.13425,-1.26234,-10.1387
15.10886,-0.9309,-1.04223,-9.89015
15.1189,-0.74415,-0.91384,-9.76759
15.12893,-0.58837,-0.8468,-9.68769
15.13897,-0.41809,-0.82525,-9.49421
15.14901,-0.25049,-0.88511,-9.22875
15.15904,-0.13004,-0.98881,-9.0619
15.16908,-0.02499,-0.9903,-9.00295
15.17912,0.05686,-0.99,-8.94549
15.18915,0.03053,-0.9683,-8.79315
15.19919,-0.09322,-0.96875,-8.70711
15.20923,-0.19184,-1.01724,-8.7143
15.21926,-0.33085,-1.10268,-8.70547
15.2293,-0.42811,-1.21042,-8.62197
15.23934,-0.51625,-1.30708,-8.54027
15.24937,-0.59735,-1.36948,-8.48969
15.25941,-0.58972,-1.43577,-8.39048
15.26945,-0.52508,-1.43278,-8.26164
15.27948,-0.41913,-1.31262,-8.10886
15.28952,-0.30017,-1.11375,-7.90865
15.29956,-0.14994,-1.03564,-7.85238
15.30959,0.01691,-1.04477,-7.76814
15.31963,0.11402,-1.1344,-7.61027
15.32967,0.12914,-1.20802,-7.50807
15.3397,0.0823,-1.25651,-7.41903
15.34974,0.02514,-1.22763,-7.38521
15.35978,-0.00419,-1.17525,-7.48622
15.36981,-0.022,-1.15415,-7.52138
15.37985,-0.0826,-1.15206,-7.30965
15.38989,-0.24481,-1.23227,-7.1226
15.39993,-0.51505,-1.34764,-6.99212
15.40996,-0.85144,-1.37158,-7.24979
15.42,-1.16403,-1.37622,-7.85897
15.43004,-1.29257,-1.4678,-8.06158
15.44007,-1.32025,-1.43832,-7.9685
15.45011,-1.19231,-1.35287,-7.77652
15.46015,-1.1148,-1.23825,-7.46722
15.47018,-0.98761,-1.12064,-7.20954
15.48022,-0.86805,-1.03744,-7.28316
15.49026,-0.77213,-0.96277,-7.62867
15.50029,-0.65721,-0.80804,-7.88755
15.51033,-0.50009,-0.72185,-8.25536
15.52037,-0.42961,-0.77587,-8.5479
15.5304,-0.46073,-0.93269,-8.58351
15.54044,-0.6198,-1.0747,-8.5476
15.55048,-0.92461,-1.15685,-8.57304
15.56051,-1.29511,-1.1154,-8.50256
15.57055,-1.52391,-1.05494,-8.38704
15.58059,-1.40704,-1.35183,-8.41906
15.59062,-1.1965,-1.85476,-8.27526
15.60066,-1.15086,-2.20431,-7.85283
15.6107,-1.26279,-2.33031,-7.31219
15.62073,-1.52406,-2.26581,-7.01022
15.63077,-1.80957,-2.10196,-7.11332
15.64081,-1.93242,-2.05527,-7.52483
15.65085,-1.91805,-2.21748,-7.98556
15.66088,-1.76138,-2.5995,-8.43986
15.67092,-1.68013,-2.92691,-8.71834
15.68096,-1.78592,-2.89354,-8.97422
15.69099,-2.00065,-2.64799,-9.32422
15.70103,-2.20551,-2.34347,-9.55765
15.71107,-2.16391,-1.98165,-9.27963
15.7211,-1.84339,-1.77949,-8.66746
15.73114,-1.38819,-1.88304,-8.27376
15.74118,-1.00272,-2.16885,-8.24847
15.75121,-0.7847,-2.46363,-8.46724
15.76125,-0.71168,-2.59965,-8.85226
15.77129,-0.72065,-2.57496,-9.34577
15.78132,-0.83588,-2.45226,-9.95674
15.79136,-1.02068,-2.28542,-10.28609
15.8014,-1.05285,-2.32552,-10.47164
15.81143,-0.85578,-2.47486,-10.46865
15.82147,-0.62623,-2.54294,-10.3648
15.83151,-0.32382,-2.50643,-10.51339
15.84154,-0.13437,-2.41829,-10.43543
15.85158,-0.01945,-2.28931,-10.35208
15.86162,-0.13198,-2.15807,-10.52626
15.87165,-0.30466,-2.04599,-10.7573
15.88169,-0.38053,-2.05752,-11.30452
15.89173,-0.48991,-2.0849,-11.7681
15.90177,-0.56099,-2.08041,-12.15446
15.9118,-0.8043,-2.0454,-12.56342
15.92184,-1.03834,-2.10241,-12.92091
15.93188,-1.19231,-2.09178,-12.77501
15.94191,-1.18827,-1.92314,-12.32445
15.95195,-1.04761,-1.68746,-11.974
15.96199,-0.86685,-1.49009,-11.70106
15.97202,-0.72724,-1.36455,-11.85055
15.98206,-0.60424,-1.18333,-12.22494
15.9921,-0.60424,-0.94032,-12.41498
16.00213,-0.6409,-0.56473,-12.43638
16.01217,-0.75402,-0.23493,-12.64617
16.02221,-0.84605,-0.0012,-12.86509
16.03224,-0.82765,0.08993,-12.98001
16.04228,-0.64688,-0.00913,-12.85881
16.05232,-0.37065,-0.16281,-12.60143
16.06235,-0.17957,-0.28042,-12.31966
16.07239,-0.16296,-0.33728,-12.06543
16.08243,-0.29583,-0.41943,-12.02159
16.09246,-0.3527,-0.62339,-11.90412
16.1025,-0.45041,-0.76884,-11.59796
16.11254,-0.52224,-0.82615,-11.32383
16.12258,-0.52014,-0.84889,-11.19349
16.13261,-0.48527,-0.81777,-11.14007
16.14265,-0.46433,-0.7636,-11.16117
16.15269,-0.48902,-0.73726,-11.0654
16.16272,-0.54438,-0.74579,-10.8607
16.17276,-0.52643,-0.6816,-10.62846
16.1828,-0.57311,-0.50398,-10.54077
16.19283,-0.75402,-0.39729,-10.7163
16.20287,-0.92267,-0.43964,-10.87746
16.21291,-1.05659,-0.48423,-10.94853
16.22294,-1.16732,-0.52448,-10.97038
16.23298,-1.16717,-0.5993,-10.83331
16.24302,-1.12288,-0.61755,-10.5894
16.25305,-1.07634,-0.62055,-10.42106
16.26309,-1.05928,-0.60693,-10.31422
16.27313,-1.09819,-0.59107,-10.24629
16.28316,-1.19411,-0.52583,-10.18269
16.2932,-1.27791,-0.54857,-10.16488
16.30324,-1.31576,-0.63027,-10.18434
16.31327,-1.3415,-0.71871,-10.22444
16.32331,-1.29422,-0.74639,-10.14169
16.33335,-1.17331,-0.7413,-9.93369
16.34338,-1.01948,-0.69567,-9.77508
16.35342,-0.95858,-0.62803,-9.69293
16.36346,-0.92536,-0.53615,-9.67497
16.3735,-0.93808,-0.52942,-9.70983
16.38353,-0.96397,-0.56458,-9.71836
16.39357,-0.95933,-0.63895,-9.72989
16.40361,-0.91069,-0.67801,-9.64534
16.41364,-0.84426,-0.70345,-9.55346
16.42368,-0.85548,-0.67861,-9.59401
16.43372,-0.90291,-0.67262,-9.71013
16.44375,-0.92745,-0.73577,-9.69966
16.45379,-0.9282,-0.84665,-9.6003
16.46383,-0.85847,-0.92042,-9.49062
16.47386,-0.76525,-1.00167,-9.44722
16.4839,-0.65182,-1.0105,-9.47131
16.49394,-0.56009,-0.96995,-9.5789
16.50397,-0.46866,-0.92461,-9.63352
16.51401,-0.35255,-0.90276,-9.62843
16.52405,-0.18241,-0.9704,-9.70325
16.53408,-0.00479,-1.04686,-9.83358
16.54412,0.19573,-1.08248,-9.79483
16.55416,0.42437,-1.06886,-9.6205
16.56419,0.65033,-1.06976,-9.55047
16.57423,0.86206,-1.16837,-9.56424
16.58427,1.08921,-1.2185,-9.48403
16.59431,1.41482,-1.30245,-9.42807
16.60434,1.68567,-1.36664,-9.4547
16.61438,1.87002,-1.35512,-9.41535
16.62442,1.99587,-1.31157,-9.39934
16.63445,2.07727,-1.27252,-9.48328
16.64449,2.21853,-1.31771,-9.79737
16.65453,2.17034,-1.3228,-9.89628
16.66456,2.02804,-1.24334,-9.4951
16.6746,1.95322,-1.13904,-9.00115
16.68464,1.92628,-1.07814,-8.55463
16.69467,1.8591,-0.94511,-8.0725
16.70471,1.99467,-0.91833,-8.15749
16.71475,2.27733,-0.94361,-8.48011
16.72478,2.40647,-0.86505,-8.76532
16.73482,2.3131,-0.5773,-8.88144
16.74486,2.09493,-0.21039,-9.01133
16.75489,1.78503,0.17104,-9.19269
16.76493,1.62132,0.46448,-9.51501
16.77497,1.62716,0.61531,-9.8496
16.785,1.67923,0.79293,-10.02587
16.79504,1.66457,1.06437,-9.99849
16.80508,1.69764,1.33207,-9.85393
16.81511,1.72502,1.55937,-9.76969
16.82515,1.67624,1.70766,-9.71313
16.83519,1.45148,1.79954,-9.68021
16.84522,1.09026,1.72727,-9.65103
16.85526,0.57551,1.69794,-10.02901
16.8653,0.00988,1.8148,-10.69879
16.87534,-0.48707,1.95442,-11.22566
16.88537,-0.72619,1.80942,-11.78306
16.89541,-0.90606,1.50206,-11.8712
16.90607,-0.90606,1.50206,-11.8712
16.91611,-0.90621,1.40779,-11.50788
16.92615,-0.85907,1.31531,-10.99971
16.93618,-0.67322,1.08846,-10.3847
16.94622,-0.45804,0.79787,-9.89628
16.95626,-0.36063,0.4953,-9.50034
16.96629,-0.52508,0.33893,-9.30177
16.97633,-0.93075,0.31304,-9.56319
16.98637,-1.29631,0.2496,-10.01779
16.99641,-1.44819,0.08918,-10.29686
17.00644,-1.40001,-0.05477,-10.17895
17.01648,-1.32729,-0.08679,-9.8255
17.02652,-1.23167,-0.14231,-9.69008
17.03655,-1.18947,-0.12794,-9.54374
17.04659,-1.2598,-0.00404,-9.50079
17.05663,-1.27686,0.1022,-9.59282
17.06666,-1.25097,0.17702,-9.72989
17.0767,-1.18678,0.2695,-9.57262
17.08674,-1.19456,0.40627,-9.50947
17.09677,-1.40375,0.4953,-9.80411
17.10681,-1.42275,0.40073,-10.29941
17.11685,-1.03819,0.25528,-10.17835
17.12688,-0.53241,0.29404,-9.27828
17.13692,-0.17448,0.42632,-8.32958
17.14696,-0.32157,0.54229,-8.16213
17.157,-1.03699,0.50443,-8.95387
17.16703,-1.78533,0.24885,-10.06178
17.17707,-2.14251,-0.01152,-10.49768
17.1871,-2.09448,-0.15218,-10.158
17.19714,-1.75345,-0.21967,-9.62125
17.20718,-1.343,-0.246,-9.08704
17.21722,-1.46211,-0.19842,-8.8376
17.22725,-1.95457,-0.22446,-9.21034
17.23729,-2.37176,-0.5155,-9.88745
17.24733,-2.51152,-0.76599,-10.15276
17.25736,-2.34138,-0.81508,-9.91603
17.2674,-2.1039,-0.72903,-9.56154
17.27744,-1.94589,-0.62803,-9.46398
17.28747,-1.89082,-0.58823,-9.71537
17.29751,-1.88813,-0.56264,-9.94731
17.30755,-1.89067,-0.5776,-9.93175
17.31758,-1.8169,-0.62384,-9.84301
17.32762,-1.72487,-0.7021,-9.76834
17.33766,-1.66098,-0.67292,-9.71597
17.3477,-1.74358,-0.63656,-9.83463
17.35773,-1.67489,-0.6804,-9.94671
17.36777,-1.47408,-0.65616,-9.81488
17.3778,-1.16298,-0.62429,-9.65133
17.38784,-0.88421,-0.61711,-9.53611
17.39788,-0.79278,-0.56518,-9.61556
17.40792,-0.79398,-0.56997,-9.87474
17.41795,-0.88945,-0.57012,-9.94566
17.42799,-1.03998,-0.54019,-10.0525
17.43803,-1.07649,-0.60229,-10.44485
17.44806,-0.97235,-0.67487,-10.52341
17.4581,-0.66215,-0.63446,-10.0977
17.46814,-0.41405,-0.47749,-9.60569
17.47817,-0.2668,-0.33519,-9.34173
17.48821,-0.16325,-0.27638,-9.41041
17.49825,-0.12001,-0.29673,-9.69128
17.50828,-0.05821,-0.41435,-10.04278
17.51832,0.01841,-0.50233,-10.21052
17.52836,0.10235,-0.48318,-10.02377
17.53839,0.00778,-0.38457,-9.83194
17.54843,-0.14979,-0.31903,-9.88925
17.55847,-0.34955,-0.3087,-10.0338
17.56851,-0.44158,-0.37783,-10.18104
17.57854,-0.06015,-0.68788,-10.013
17.58921,-0.06015,-0.68788,-10.013
17.59924,-0.06015,-0.68788,-10.013
17.60928,0.1655,-0.64344,-9.65402
17.61932,0.26905,-0.53495,-9.61152
17.62935,0.28356,-0.46896,-9.8258
17.63939,0.27713,-0.48587,-10.03919
17.64943,0.26306,-0.49889,-10.17685
17.65946,0.27159,-0.53211,-10.23401
17.6695,0.34985,-0.5562,-10.27247
17.67954,0.40327,-0.54169,-10.24329
17.68957,0.37918,-0.46986,-10.26768
17.69961,0.32022,-0.34087,-10.42929
17.70965,0.26396,-0.22954,-10.59838
17.71969,0.18615,-0.0624,-10.58551
17.72972,0.11687,0.0606,-10.60631
17.73976,0.00434,0.09726,-10.60601
17.7498,-0.0419,-0.00479,-10.59569
17.75983,-0.09906,-0.16281,-10.58521
17.76987,-0.17388,-0.27129,-10.49932
17.77991,-0.21503,-0.37649,-10.35941
17.78994,-0.26396,-0.48453,-10.18987
17.79998,-0.36856,-0.63686,-10.17386
17.81002,-0.42527,-0.85653,-10.47613
17.82005,-0.58104,-1.02113,-10.81236
17.83009,-0.81089,-1.04148,-10.96485
17.84013,-0.98581,-0.99748,-11.07094
17.85016,-1.09954,-1.00437,-11.32532
17.8602,-1.11525,-1.11121,-11.6222
17.87024,-1.1549,-1.1552,-11.84082
17.88028,-1.26324,-1.10298,-11.88108
17.89031,-1.46989,-1.01739,-11.86896
17.90035,-1.64302,-1.03819,-12.00812
17.91039,-1.8597,-1.08637,-12.16898
17.92042,-1.9212,-1.03729,-12.35677
17.93046,-1.8356,-0.88271,-12.52108
17.9405,-1.58586,-0.82435,-12.52512
17.95053,-1.30544,-0.82346,-12.40571
17.96057,-1.25666,-0.84111,-12.34884
17.97061,-1.45732,-0.7223,-12.53619
17.98064,-1.68208,-0.52224,-12.97148
17.99068,-1.8576,-0.35629,-13.43027
18.00072,-1.96235,-0.23957,-13.48863
18.01075,-1.85102,-0.07227,-13.00665
18.02079,-1.45253,0.03906,-12.37219
18.03083,-1.05869,0.11372,-11.60634
18.04086,-0.8857,0.26965,-11.05553
18.0509,-0.7449,0.36392,-11.35989
18.06094,-0.90815,0.32037,-11.91085
18.07098,-1.11046,0.19124,-12.23302
18.08101,-1.09894,0.08544,-12.14593
18.09105,-0.89947,-0.11238,-11.75329
18.10109,-0.94227,-0.20396,-11.13812
18.11112,-1.06482,-0.19303,-10.72902
18.12116,-1.09176,-0.35165,-10.35911
18.1312,-1.11749,-0.63102,-10.17566
18.14123,-0.93972,-1.00437,-10.09395
18.15127,-0.60528,-1.23646,-9.80396
18.16131,-0.19004,-1.33776,-9.29878
18.17134,0.14859,-1.45059,-8.99382
18.18138,0.31184,-1.57643,-9.2093
18.19142,0.2466,-1.59484,-9.41041
18.20145,0.2273,-1.55488,-9.22845
18.21149,0.31903,-1.52675,-8.82398
18.22153,0.34043,-1.507,-8.54102
18.23156,0.05088,-1.50401,-8.52889
18.2416,-0.23478,-1.51777,-8.70876
18.25164,-0.3307,-1.7331,-8.83445
18.26168,-0.27503,-1.89247,-8.65279
18.27171,-0.15877,-1.84578,-8.37941
18.28175,0.11343,-1.64137,-8.05529
18.29179,0.37679,-1.40375,-7.99798
18.30182,0.62249,-1.24005,-8.02806
18.31186,0.66454,-1.21162,-8.04242
18.3219,0.66783,-1.32025,-8.26239
18.33193,0.74071,-1.40525,-8.57768
18.34197,0.71632,-1.31891,-8.56885
18.35201,0.72095,-1.27701,-8.44869
18.36204,0.81597,-1.24992,-8.30818
18.37208,0.98701,-1.25785,-8.29651
18.38212,1.22823,-1.36559,-8.01968
18.39215,1.22269,-1.35123,-7.65007
18.40219,1.03235,-1.3207,-7.61356
18.41223,0.94691,-1.32938,-7.83817
18.42226,0.96636,-1.37278,-8.39497
18.4323,1.03878,-1.32639,-8.79495
18.44234,0.92715,-1.02726,-8.82533
18.45238,0.82256,-0.73741,-8.91915
18.46241,0.92267,-0.62773,-8.66551
18.47245,1.11196,-0.58927,-8.22259
18.48249,1.3608,-0.64823,-7.98736
18.49252,1.60352,-0.73697,-7.83742
18.50256,1.63808,-0.78814,-7.83218
18.5126,1.63494,-0.85024,-7.9281
18.52263,1.70647,-0.94182,-7.98152
18.53267,1.8181,-1.0539,-7.89772
18.54271,1.87301,-1.13141,-7.92989
18.55274,1.83007,-1.07649,-8.06412
18.56278,1.75166,-1.07485,-8.03389
18.57282,1.62147,-1.13096,-8.01728
18.58285,1.51658,-1.19575,-7.99559
18.59289,1.49099,-1.32758,-8.02881
18.60293,1.5474,-1.41363,-8.06457
18.61297,1.57134,-1.50625,-8.08791
18.623,1.47094,-1.5676,-8.08118
18.63304,1.31352,-1.55758,-8.01743
18.64308,1.04327,-1.62177,-8.33721
18.65311,0.75507,-1.69539,-8.61449
18.66315,0.63386,-1.78488,-8.78178
18.67319,0.65526,-1.87182,-8.84822
18.68322,0.6813,-1.86044,-8.73524
18.69326,0.71257,-1.79341,-8.50929
18.7033,0.78784,-1.68731,-8.443
18.71333,0.78141,-1.55803,-8.71789
18.72337,0.57551,-1.46091,-9.02434
18.73341,0.42422,-1.43727,-9.21603
18.74344,0.33803,-1.35437,-9.49989
18.75348,0.31963,-1.28599,-9.58204
18.76352,0.41569,-1.36769,-9.48179
18.77355,0.51715,-1.48919,-9.34173
18.78359,0.53944,-1.57957,-9.12774
18.79363,0.56264,-1.60292,-8.8765
18.80366,0.62923,-1.54426,-8.71459
18.8137,0.69342,-1.55937,-8.64172
18.82374,0.65287,-1.61968,-8.66102
18.83378,0.60903,-1.70377,-8.81395
18.84381,0.62055,-1.80373,-8.96434
18.85385,0.60992,-1.8386,-8.90074
18.86389,0.60484,-1.79969,-8.79001
18.87392,0.57895,-1.80074,-8.67599
18.88396,0.58882,-1.7973,-8.57289
18.894,0.61456,-1.89321,-8.52381
18.90403,0.60454,-1.98449,-8.50585
18.91407,0.52643,-2.02101,-8.58276
18.92411,0.3301,-1.95801,-8.49867
18.93415,0.11343,-1.87406,-8.38569
18.94418,-0.07871,-1.8392,-8.44555
18.95422,-0.16071,-1.8591,-8.6495
18.96425,-0.17867,-1.83755,-8.81755
18.97429,-0.16535,-1.85236,-8.83341
18.98433,-0.07317,-1.88289,-8.78373
18.99437,0.05821,-1.89381,-8.6281
19.0044,0.20949,-1.88274,-8.45153
19.01444,0.2285,-1.88573,-8.39647
19.02448,0.09532,-1.88364,-8.43118
19.03451,-0.07123,-1.92898,-8.49328
19.04455,-0.25827,-1.98449,-8.63948
19.05459,-0.34866,-1.98883,-8.70128
19.06462,-0.36946,-1.86897,-8.66716
19.07466,-0.31633,-1.63389,-8.55837
19.0847,-0.1854,-1.44909,-8.47113
19.09473,-0.0205,-1.31771,-8.47293
19.10477,0.17029,-1.14054,-8.46231
19.11481,0.37035,-1.00631,-8.39093
19.12484,0.50952,-0.90621,-8.27047
19.13488,0.57326,-0.84261,-8.22767
19.14492,0.7,-0.95708,-8.36564
19.15496,0.7422,-1.10732,-8.55329
19.16499,0.65751,-1.21491,-8.7324
19.17503,0.4142,-1.2399,-8.85855
19.18507,0.2065,-1.24259,-8.86094
19.1951,0.06554,-1.2179,-8.87546
19.20514,-0.04773,-1.1977,-9.06594
19.21518,-0.0621,-1.26713,-9.3751
19.22521,-0.0612,-1.29077,-9.66225
19.23525,-0.03382,-1.31142,-9.846
19.24529,0.01811,-1.28494,-9.93279
19.25532,0.18495,-1.24319,-9.92382
19.26536,0.39519,-1.09011,-9.76011
19.2754,0.62055,-0.86535,-9.54912
19.28543,0.82091,-0.66993,-9.43675
19.29547,0.92656,-0.47151,-9.34173
19.30551,0.93793,-0.34043,-9.35893
19.31555,0.89932,-0.26411,-9.59357
19.32558,0.91728,-0.30032,-9.81159
19.33562,0.94541,-0.38651,-9.82745
19.34566,0.92775,-0.40941,-9.71597
19.35569,0.87149,-0.38651,-9.64564
19.36573,0.70779,-0.38352,-9.59536
19.37577,0.51445,-0.42662,-9.60658
19.3858,0.42901,-0.51984,-9.69697
19.39584,0.41195,-0.57177,-9.80351
19.40588,0.36227,-0.6186,-9.82506
19.41592,0.28326,-0.64688,-9.78241
19.42595,0.23314,-0.69387,-9.82401
19.43599,0.15233,-0.71153,-9.88461
19.44602,0.11612,-0.59481,-10.01285
19.45606,0.15832,-0.44652,-10.17192
19.4661,0.27249,-0.37065,-10.21501
19.47614,0.45565,-0.32501,-10.26619
19.48617,0.67876,-0.27653,-10.22145
19.49621,0.9294,-0.28341,-10.13331
19.50625,1.08682,-0.30676,-9.97649
19.51628,1.01305,-0.33519,-9.69771
19.52632,0.83228,-0.32681,-9.52608
19.53636,0.61711,-0.3904,-9.53581
19.54639,0.38472,-0.58838,-9.55137
19.55643,0.36287,-0.8037,-9.52174
19.56647,0.45445,-1.01514,-9.6021
19.5765,0.48438,-1.17271,-9.4155
19.58654,0.4754,-1.20428,-9.17757
19.59658,0.47091,-1.18827,-9.05322
19.60662,0.4769,-1.25965,-9.00803
19.61665,0.49096,-1.36095,-9.06131
19.62669,0.45146,-1.3843,-9.29609
19.63673,0.43739,-1.35781,-9.46443
19.64676,0.34776,-1.30813,-9.38392
19.6568,0.25139,-1.23197,-9.24536
19.66684,0.19962,-1.16672,-9.21109
19.67687,0.18375,-1.10941,-9.16141
19.68691,0.31259,-1.07275,-9.04155
19.69695,0.56503,-1.04297,-8.90224
19.70698,0.79906,-0.97668,-8.84433
19.71702,0.98701,-1.01335,-8.94309
19.72706,1.01783,-1.10941,-9.15228
19.7371,0.91578,-1.13081,-9.28037
19.74713,0.81971,-1.19366,-9.28486
19.75717,0.76315,-1.26144,-9.19508
19.76721,0.69761,-1.30274,-9.01267
19.77724,0.63177,-1.29362,-8.87426
19.78728,0.59481,-1.20787,-8.86827
19.79732,0.61845,-1.16328,-9.07537
19.80735,0.67906,-1.15475,-9.41071
19.81739,0.69312,-1.06632,-9.4547
19.82743,0.69986,-0.92446,-9.24267
19.83746,0.72874,-0.73622,-9.1668
19.8475,0.71108,-0.50248,-9.31599
19.85754,0.68863,-0.32845,-9.34023
19.86757,0.6617,-0.30227,-9.31913
19.87761,0.57625,-0.21593,-9.50124
19.88765,0.57027,-0.13752,-9.70699
19.89768,0.63536,-0.15742,-9.88626
19.90772,0.74101,-0.21623,-10.12867
19.91776,0.807,-0.25663,-10.29507
19.9278,0.78216,-0.22386,-10.281
19.93783,0.75372,-0.17717,-10.29821
19.94787,0.63895,-0.10101,-10.33023
19.95791,0.42273,-0.05028,-10.54227
19.96794,0.25603,-0.07856,-10.91113
19.97798,0.15742,-0.12525,-11.18915
19.98802,0.15487,-0.10086,-11.2939
19.99805,0.2882,-0.09203,-11.26502
20.00809,0.56354,0.02918,-11.10416
20.01813,0.81837,0.18241,-10.86354
20.02817,0.9716,0.21937,-10.72602
20.0382,1.10881,0.23643,-10.78259
20.04824,1.21326,0.17597,-10.91352
20.05827,1.22793,0.17582,-11.08845
20.06831,1.26953,0.1863,-11.30692
20.07835,1.31202,0.10894,-11.52359
20.08839,1.18064,0.12749,-11.44713
20.09842,0.84815,0.30332,-11.24033
20.10846,0.38322,0.47944,-11.51087
20.1185,0.17208,0.36108,-11.63851
20.12853,0.23104,0.13228,-11.90981
20.13857,0.29269,-0.01706,-12.037
20.14861,0.31663,-0.06285,-11.94273
20.15864,0.32516,0.02858,-11.79249
20.16868,0.41913,0.10819,-11.58943
20.17872,0.5993,0.14545,-11.35809
20.18875,0.83049,0.14126,-11.02275
20.19879,1.02307,0.10849,-10.7341
20.20883,1.18468,0.07542,-10.51922
20.21887,1.3415,0.0835,-10.3639
20.2289,1.44565,0.0838,-10.21726
20.23894,1.48246,0.05851,-10.09306
20.24898,1.46166,-0.00628,-10.02243
20.25901,1.36484,-0.06973,-10.05684
20.26905,1.20698,-0.08529,-10.14633
20.27909,1.08128,-0.06434,-10.23312
20.28912,1.04567,-0.03876,-10.34116
20.29916,1.02098,-0.07407,-10.27292
20.3092,1.00227,-0.10834,-10.17416
20.31923,0.95948,-0.1016,-10.14947
20.32927,0.89349,-0.07736,-10.10802
20.33931,0.826,-0.0808,-10.08483
20.34934,0.79024,-0.11178,-10.02138
20.35938,0.81298,-0.15293,-9.89778
20.36942,0.84949,-0.2282,-9.93953
20.37946,0.85054,-0.21787,-10.10473
20.38949,0.76734,-0.16385,-10.27651
20.39953,0.74744,-0.17014,-10.29073
20.40957,0.78814,-0.23388,-10.1791
20.4196,0.83752,-0.31993,-10.15112
20.42964,0.83962,-0.37888,-10.19825
20.43968,0.82899,-0.42796,-10.17042
20.44971,0.8254,-0.49291,-10.03006
20.45975,0.84485,-0.53765,-9.79124
20.46979,0.90052,-0.69342,-9.63696
20.47982,0.97309,-0.91518,-9.59057
20.48986,1.09759,-1.19411,-9.67422
20.4999,1.16283,-1.40764,-9.80051
20.50994,1.13081,-1.48874,-9.82805
20.51997,1.13021,-1.46046,-9.75503
20.53001,1.19007,-1.41363,-9.53042
20.54005,1.26085,-1.38609,-9.40098
20.55008,1.4021,-1.26354,-9.31793
20.56012,1.53214,-1.08128,-9.38991
20.57016,1.65993,-0.93987,-9.55526
20.58019,1.82348,-0.88989,-9.52503
20.59023,1.99003,-0.83737,-9.43854
20.60027,2.04989,-0.804,-9.34322
20.6103,2.00006,-0.76375,-9.20376
20.62034,1.92165,-0.74624,-9.20466
20.63038,1.84249,-0.8064,-9.29549
20.64042,1.79251,-0.91354,-9.31359
20.65045,1.77141,-1.03205,-9.32975
20.66049,1.70901,-1.13575,-9.3109
20.67052,1.63404,-1.17121,-9.35759
20.68056,1.47468,-1.10223,-9.44019
20.6906,1.19321,-0.99554,-9.6624
20.70064,0.94032,-0.94182,-9.92262
20.71067,0.69821,-0.98462,-10.05265
20.72071,0.58568,-1.14682,-10.06627
20.73075,0.53181,-1.26668,-10.04831
20.74078,0.49156,-1.31756,-9.89553
20.75082,0.51371,-1.31606,-9.75398
20.76086,0.54259,-1.30484,-9.67721
20.77089,0.57536,-1.31217,-9.60718
20.78093,0.52298,-1.31142,-9.51366
20.79097,0.40208,-1.28928,-9.33305
20.801,0.35509,-1.34539,-9.30896
20.81104,0.34237,-1.41797,-9.37375
20.82108,0.36257,-1.49638,-9.43196
20.83112,0.39534,-1.69764,-9.64968
20.84115,0.30451,-1.81451,-9.39575
20.85119,0.18001,-1.65828,-8.94429
20.86123,0.19827,-1.48022,-8.94115
20.87126,0.40178,-1.44864,-9.59282
20.8813,0.36811,-1.27237,-10.28235
20.89134,0.27668,-0.99659,-10.34011
20.90137,0.32277,-0.78545,-9.91963
20.91141,0.44023,-0.67921,-9.71567
20.92145,0.60588,-0.65451,-9.76311
20.93148,0.71512,-0.73891,-9.74006
20.94152,0.82196,-0.83827,-9.5979
20.95156,0.7847,-0.93449,-9.68125
20.96159,0.66379,-1.07126,-9.90661
20.97163,0.52343,-1.22149,-10.01016
20.98167,0.53555,-1.44759,-10.23416
20.99171,0.64554,-1.59873,-10.32275
21.00174,0.71676,-1.51837,-9.86995
21.01178,0.87688,-1.4024,-9.54194
21.02182,0.9701,-1.28853,-9.3525
21.03185,0.92745,-1.19875,-9.34487
21.04189,0.87613,-1.08772,-9.55346
21.05193,0.77901,-0.99404,-9.87324
21.06196,0.61935,-0.98477,-10.11056
21.072,0.39699,-0.99359,-10.18658
21.08204,0.32202,-0.98342,-10.11326
21.09207,0.43545,-1.03968,-10.12732
21.10211,0.63446,-1.08592,-10.1779
21.11215,0.81134,-1.07754,-10.26005
21.12218,0.90935,-1.08233,-10.32544
21.13222,0.96456,-1.19082,-10.1776
21.14226,0.93299,-1.28195,-9.80426
21.1523,0.9071,-1.34674,-9.22501
21.16233,0.91234,-1.40599,-8.60476
21.17237,0.83992,-1.51673,-8.40275
21.18241,0.79188,-1.5079,-8.53712
21.19244,0.62339,-1.56117,-8.72312
21.20248,0.23628,-1.6529,-8.71594
21.21252,0.0814,-1.54621,-8.72238
21.22255,0.14814,-1.41692,-8.91616
21.23259,0.00958,-1.29152,-9.21304
21.24263,-0.30137,-1.11525,-9.54508
21.25267,-0.49844,-0.99464,-9.97948
21.2627,-0.37933,-0.99494,-10.76403
21.27274,-0.46058,-0.85204,-10.80189
21.28277,-0.6605,-0.72469,-10.55858
21.29281,-0.88511,-0.54019,-10.46266
21.30285,-1.04402,-0.39115,-10.57983
21.31289,-1.07829,-0.3937,-10.87446
21.32292,-1.05674,-0.44562,-10.3847
21.33296,-0.85159,-0.5568,-9.85738
21.343,-0.43904,-0.80385,-9.79618
21.35303,-0.10116,-1.09819,-9.71283
21.36307,0.07512,-1.27731,-9.4975
21.37311,0.06928,-1.39522,-9.27753
21.38314,-0.06449,-1.51553,-9.04335
21.39318,-0.21817,-1.61893,-8.77445
21.40322,-0.29688,-1.77814,-8.62092
21.41325,-0.20605,-1.97507,-8.61658
21.42329,-0.07961,-2.05916,-8.76053
21.43333,0.03771,-2.0439,-8.97137
21.44336,0.10684,-1.9809,-9.12999
21.4534,0.15936,-1.79969,-9.18191
21.46344,0.15727,-1.61953,-9.17189
21.47348,0.10385,-1.49413,-9.2708
21.48351,0.18316,-1.49548,-9.53162
21.49355,0.34028,-1.68657,-9.73677
21.50359,0.40986,-1.82199,-9.90212
21.51362,0.38217,-1.75749,-9.85394
21.52366,0.34581,-1.73535,-9.87399
21.5337,0.33414,-1.66981,-10.0118
21.54373,0.30212,-1.32818,-9.73542
21.55377,0.3286,-1.00497,-9.56349
21.56381,0.48333,-0.9511,-9.66075
21.57384,0.56907,-0.99644,-9.68066
21.58388,0.51909,-1.06512,-9.47834
21.59392,0.42318,-1.3412,-9.65971
21.60395,0.20036,-1.60382,-9.40547
21.61399,-0.08649,-1.79415,-8.80887
21.62403,-0.45714,-1.97926,-9.17937
21.63407,-0.47046,-2.20955,-10.12972
21.6441,-0.32037,-2.14236,-10.69654
21.65414,-0.28596,-1.79071,-10.24928
21.66418,-0.17388,-1.62222,-9.69936
21.67421,-0.07093,-1.6086,-9.60195
21.68425,-0.05596,-1.47139,-9.90631
21.69429,-0.08649,-1.23496,-9.77358
21.70432,-0.20321,-1.0536,-9.42283
21.71436,-0.21368,-1.00407,-9.58653
21.7244,-0.10445,-1.09595,-9.7034
21.73443,-0.07257,-1.24484,-9.66464
21.74447,-0.05986,-1.34045,-9.72734
21.75451,-0.02664,-1.3831,-9.75084
21.76455,-0.08619,-1.39567,-9.79707
21.77458,-0.17867,-1.39986,-9.9283
21.78462,-0.27429,-1.37412,-10.01599
21.79466,-0.36631,-1.34464,-10.13061
21.80469,-0.43993,-1.27686,-10.21022
21.81473,-0.43964,-1.21296,-10.41777
21.82477,-0.42991,-1.17466,-10.47628
21.8348,-0.40806,-1.00856,-10.34654
21.84484,-0.372,-0.89857,-10.23027
21.85488,-0.31544,-0.91653,-10.15067
21.86491,-0.21877,-0.93404,-10.13032
21.87495,-0.18046,-0.98207,-10.10099
21.88499,-0.16954,-0.93838,-10.00103
21.89502,-0.05013,-0.94272,-9.91274
21.90506,0.01062,-1.02532,-9.67467
21.9151,-0.04818,-1.094,-9.4562
21.92514,-0.13602,-1.18618,-9.39844
21.93517,-0.17567,-1.2803,-9.49286
21.94521,-0.1661,-1.37457,-9.59237
21.95525,-0.15592,-1.38235,-9.65941
21.96528,-0.19199,-1.26653,-9.66524
21.97532,-0.21892,-1.16448,-9.72674
21.98536,-0.25184,-1.10837,-9.81279
21.99539,-0.23358,-1.11256,-9.86127
22.00543,-0.26456,-1.12168,-9.91244
22.01547,-0.24226,-1.11136,-9.82446
22.0255,-0.19662,-1.18064,-9.74829
22.03554,-0.24825,-1.1992,-9.62035
22.04558,-0.3301,-1.24813,-9.65716
22.05561,-0.32277,-1.23915,-9.6633
22.06565,-0.32741,-1.15924,-9.65073
22.07569,-0.30511,-1.13096,-9.65192
22.08573,-0.2463,-1.15281,-9.76161
22.09576,-0.2291,-1.13904,-9.87473
22.1058,-0.31499,-1.09759,-9.89179
22.11584,-0.35928,-1.07365,-9.96691
22.12587,-0.44233,-1.02382,-10.09006
22.13591,-0.50592,-1.00826,-10.14274
22.14595,-0.48453,-0.95843,-10.06103
22.15598,-0.42392,-0.86865,-9.89658
22.16602,-0.40627,-0.91937,-9.79647
22.17606,-0.40866,-1.02726,-9.72181
22.18609,-0.46462,-1.20548,-9.64265
22.19613,-0.56009,-1.35856,-9.58264
22.20617,-0.63536,-1.44759,-9.55496
22.2162,-0.67487,-1.48964,-9.70834
22.22624,-0.66245,-1.4862,-9.89957
22.23628,-0.6795,-1.46181,-10.13316
22.24632,-0.73786,-1.36514,-10.2593
22.25635,-0.89827,-1.26967,-10.17221
22.26639,-1.24244,-1.18468,-10.03769
22.27643,-1.51239,-1.28045,-10.33562
22.28646,-1.40644,-1.58541,-11.12885
22.2965,-1.18139,-1.8573,-12.19053
22.30654,-1.08442,-1.98599,-13.26313
22.31657,-1.06063,-1.91746,-14.08808
22.32661,-1.10822,-1.70138,-14.37015
22.33665,-1.1555,-1.4678,-14.11517
22.34668,-1.17106,-1.35587,-13.60924
22.35672,-1.14533,-1.36185,-13.18786
22.36676,-1.29197,-1.41273,-12.83142
22.37679,-1.54097,-1.5498,-12.73147
22.38683,-1.78697,-1.67863,-12.73625
22.39687,-2.0638,-1.77051,-12.85267
22.4069,-2.19204,-1.84593,-13.08237
22.41694,-2.16122,-1.9408,-13.42593
22.42698,-2.19414,-1.9812,-13.67344
22.43702,-2.28721,-1.93721,-13.67314
22.44705,-2.36203,-1.82962,-13.54729
22.45709,-2.26866,-1.68642,-13.36099
22.46713,-2.0837,-1.48291,-12.98346
22.47716,-1.84234,-1.36754,-12.52227
22.4872,-1.76273,-1.24528,-11.98148
22.49724,-1.76722,-1.22119,-11.52105
22.50727,-1.80613,-1.27027,-11.18362
22.51731,-1.77874,-1.29107,-10.82478
22.52735,-1.60681,-1.37697,-10.49259
22.53738,-1.28673,-1.43069,-10.15979
22.54742,-0.91159,-1.39956,-9.87174
22.55746,-0.64449,-1.3023,-9.68814
22.56749,-0.43694,-1.18333,-9.5816
22.57753,-0.3289,-1.02711,-9.55346
22.58757,-0.14799,-0.97833,-9.58743
22.59761,0.00673,-0.91444,-9.65866
22.60764,0.00329,-0.69522,-9.40293
22.61768,-0.03651,-0.45669,-9.39769
22.62772,-0.10101,-0.34402,-9.71432
22.63775,-0.11043,-0.31155,-9.87503
22.64779,0.00733,-0.227,-9.80066
22.65783,0.16789,-0.21264,-9.63217
22.66786,0.31035,-0.2255,-9.27559
22.6779,0.34925,-0.28506,-9.02629
22.68794,0.32322,-0.49605,-9.22202
22.69797,0.22446,-0.62085,-9.33499
22.70801,0.16355,-0.69327,-9.34382
22.71805,0.17313,-0.86535,-9.40053
22.72808,0.14919,-0.94017,-9.31479
22.73812,0.04429,-0.90067,-9.09737
22.74816,-0.07422,-0.89019,-8.92723
22.75819,-0.33504,-0.87448,-8.99711
22.76823,-0.73292,-0.87762,-9.29908
22.77827,-0.86356,-0.94616,-9.60449
22.7883,-0.73367,-0.97833,-9.7239
22.79834,-0.59077,-0.90202,-9.67437
22.80838,-0.37873,-0.82001,-9.49825
22.81841,-0.19109,-0.74086,-9.28756
22.82845,0.0199,-0.7208,-9.28412
22.83849,0.12794,-0.77422,-9.15214
22.84853,0.24077,-0.90217,-9.02764
22.85856,0.26695,-1.05509,-8.98379
22.8686,0.2472,-1.16433,-8.79256
22.87864,0.25783,-1.23795,-8.66028
22.88867,0.32561,-1.24798,-8.61553
22.89871,0.4546,-1.25052,-8.61883
22.90875,0.60454,-1.31053,-8.70741
22.91878,0.68489,-1.20383,-8.49867
22.92882,0.77063,-1.03145,-8.25311
22.93886,0.94571,-0.88735,-8.17141
22.9489,1.14413,-0.81687,-8.13909
22.95893,1.35377,-0.81792,-8.19864
22.96897,1.51224,-0.96082,-8.22528
22.979,1.55458,-1.1974,-8.06472
22.98904,1.49907,-1.44909,-7.76664
22.99908,1.4033,-1.66457,-7.62029
23.00912,1.26683,-1.80777,-7.51555
23.01915,1.09071,-2.02145,-7.17123
23.02919,1.02801,-2.14595,-6.76691
23.03923,1.13036,-2.06859,-6.53033
23.04926,1.4039,-1.97417,-6.45911
23.0593,1.72772,-2.01577,-6.68281
23.06934,2.0029,-2.05213,-7.20311
23.07937,2.21628,-2.15299,-7.74315
23.08941,2.35889,-2.32627,-7.91194
23.09945,2.30442,-2.33719,-7.48143
23.10948,2.20641,-2.27629,-6.88303
23.11952,2.13413,-2.22825,-6.66875
23.12956,1.98853,-2.19369,-6.78711
23.13959,1.85341,-2.25923,-7.0412
23.14963,1.6713,-2.4147,-7.30097
23.15967,1.38968,-2.49895,-7.4741
23.1697,1.18857,-2.53561,-7.62793
23.17974,1.0735,-2.52873,-7.89129
23.18978,0.95843,-2.41754,-8.07444
23.19982,0.88346,-2.33285,-8.02701
23.20985,0.8688,-2.30696,-7.85942
23.21989,0.92087,-2.32013,-7.83173
23.22993,0.95693,-2.38792,-8.01205
23.23996,0.91683,-2.44583,-8.13445
23.25,0.82226,-2.44897,-8.19416
23.26004,0.71676,-2.41784,-8.27616
23.27007,0.6611,-2.40587,-8.29172
23.28011,0.59466,-2.40378,-8.30369
23.29015,0.52209,-2.42263,-8.38001
23.30018,0.44757,-2.45256,-8.5054
23.31022,0.31364,-2.49581,-8.65893
23.32026,0.24211,-2.57571,-8.80123
23.33029,0.25917,-2.65113,-8.84224
23.34033,0.39534,-2.73822,-8.8138
23.35037,0.5574,-2.7864,-8.65534
23.36041,0.59795,-2.76366,-8.43717
23.37044,0.57506,-2.76904,-8.22468
23.38048,0.52388,-2.8072,-8.20837
23.39052,0.48647,-2.85509,-8.45018
23.40055,0.40672,-2.83234,-8.81395
23.41059,0.30182,-2.77548,-9.01447
23.42063,0.21533,-2.71577,-8.91406
23.43066,0.14739,-2.64679,-8.77026
23.4407,0.1459,-2.58933,-8.79675
23.45074,0.22984,-2.54982,-8.92065
23.46077,0.18959,-2.47171,-9.00729
23.47081,-0.04444,-2.34437,-8.94653
23.48085,-0.23972,-2.24022,-9.01656
23.49088,-0.33624,-2.21643,-9.16276
23.50092,-0.36691,-2.18815,-9.35115
23.51096,-0.39504,-2.08834,-9.52548
23.52099,-0.35718,-1.87915,-9.54478
23.53103,-0.32022,-1.68941,-9.50528
23.54107,-0.32382,-1.54246,-9.4752
23.5511,-0.32845,-1.49787,-9.53206
23.56114,-0.36317,-1.57119,-9.5596
23.57118,-0.38861,-1.58496,-9.56573
23.58122,-0.34491,-1.54815,-9.44662
23.59125,-0.20351,-1.47707,-9.33858
23.60129,-0.00943,-1.37622,-9.22396
23.61133,0.14156,-1.27207,-9.05143
23.62136,0.27833,-1.23107,-8.86977
23.6314,0.33878,-1.27416,-8.69335
23.64144,0.31304,-1.29197,-8.66641
23.65147,0.29389,-1.28509,-8.72986
23.66151,0.28596,-1.26354,-8.73719
23.67155,0.28042,-1.20578,-8.70771
23.68158,0.30616,-1.09774,-8.59459
23.69162,0.35808,-1.01679,-8.54835
23.70166,0.38562,-1.00631,-8.55074
23.71169,0.29598,-1.13096,-8.59848
23.72173,0.16744,-1.3635,-8.64292
23.73177,-0.05552,-1.56341,-8.62212
23.7418,-0.32426,-1.6927,-8.55822
23.75184,-0.52268,-1.76378,-8.36788
23.76188,-0.57326,-1.92464,-8.37611
23.77192,-0.41614,-2.18785,-8.46709
23.78195,-0.16086,-2.39001,-8.63708
23.79199,-0.01347,-2.50299,-8.77235
23.80203,0.0395,-2.49521,-8.90778
23.81206,0.04998,-2.28527,-8.88653
23.8221,0.00359,-1.97581,-8.68571
23.83214,-0.12166,-1.67534,-8.54296
23.84217,-0.22865,-1.51074,-8.61823
23.85221,-0.33639,-1.55488,-8.8162
23.86225,-0.46807,-1.72158,-8.8976
23.87228,-0.57925,-1.84458,-8.87141
23.88232,-0.66813,-1.84398,-8.6516
23.89236,-0.71018,-1.71215,-8.41083
23.90239,-0.64838,-1.51418,-8.14941
23.91243,-0.4347,-1.40136,-7.87348
23.92247,-0.15069,-1.32758,-7.6396
23.9325,0.14635,-1.31546,-7.66758
23.94254,0.39699,-1.39013,-7.8253
23.95258,0.58882,-1.49892,-8.06307
23.96262,0.49859,-1.47513,-8.26194
23.97265,0.31648,-1.31756,-8.30519
23.98269,0.01062,-1.24693,-8.0918
23.99273,-0.27384,-1.34734,-7.86555
24.00276,-0.48168,-1.63225,-7.75557
24.0128,-0.72993,-2.01278,-7.63242
24.02284,-1.09041,-2.45106,-7.53186
24.03287,-1.33522,-2.96342,-7.68165
24.04291,-1.32803,-3.39917,-8.14552
24.05295,-1.25755,-3.61809,-8.72432
24.06298,-1.13186,-3.67226,-9.08614
24.07302,-0.89887,-3.62587,-9.11892
24.08306,-0.66499,-3.41129,-9.04873
24.09309,-0.36736,-3.10528,-9.11443
24.10313,0.00224,-2.84087,-9.06759
24.11317,0.32591,-2.63527,-9.04844
24.1232,0.43784,-2.51556,-9.22531
24.13324,0.40522,-2.45047,-9.33499
24.14328,0.10998,-2.38328,-9.41325
24.15331,-0.20485,-2.41515,-9.61003
24.16335,-0.32995,-2.57287,-9.79228
24.17339,-0.3705,-2.74809,-9.84002
24.18343,-0.30541,-2.94412,-9.85244
24.19346,-0.23733,-3.07101,-9.92546
24.2035,-0.22984,-3.05201,-9.9732
24.21354,-0.17358,-2.92856,-9.9937
24.22357,-0.10056,-2.74555,-9.95225
24.23361,-0.06375,-2.54459,-9.78525
24.24365,-0.06913,-2.24262,-9.63502
24.25368,-0.10041,-1.93437,-9.67811
24.26372,-0.18989,-1.63659,-9.87578
24.27376,-0.35674,-1.42021,-10.16219
24.28379,-0.47929,-1.29227,-10.60841
24.29383,-0.52268,-1.33177,-11.01019
24.30387,-0.35539,-1.63449,-10.95826
24.3139,-0.14455,-2.05722,-10.54077
24.32394,-0.16415,-2.3348,-10.02692
24.33398,-0.40986,-2.3544,-9.70699
24.34401,-0.81418,-2.17962,-9.75936
24.35405,-1.19665,-2.06545,-9.96691
24.36409,-1.47468,-2.02609,-10.42929
24.37413,-1.63928,-1.98973,-10.8197
24.38416,-1.65888,-1.90863,-11.29734
24.3942,-1.47603,-1.81495,-11.73159
24.40424,-1.23376,-1.80792,-12.02024
24.41427,-1.00227,-1.76079,-12.14459
24.42431,-0.85682,-1.64766,-12.037
24.43435,-0.77976,-1.50535,-11.81763
24.44438,-0.87807,-1.39238,-11.643
24.45442,-1.00616,-1.2577,-11.64869
24.46446,-1.14772,-1.16702,-11.91609
24.47449,-1.14503,-1.1992,-12.2233
24.48453,-1.02247,-1.3026,-12.34331
24.49457,-0.8239,-1.4229,-12.23497
24.5046,-0.67995,-1.47258,-12.00902
24.51464,-0.5375,-1.50535,-11.8507
24.52468,-0.5158,-1.48007,-11.61128
24.53471,-0.54513,-1.36649,-11.31709
24.54475,-0.62025,-1.22463,-11.18212
24.55479,-0.67097,-1.16463,-11.28118
24.56482,-0.68504,-1.17301,-11.43471
24.57486,-0.60409,-1.24409,-11.42064
24.5849,-0.51805,-1.28569,-11.36168
24.59494,-0.473,-1.2818,-11.26696
24.60497,-0.43993,-1.2797,-11.13483
24.61501,-0.41165,-1.24543,-11.14336
24.62505,-0.36242,-1.24364,-11.0883
24.63508,-0.25633,-1.29033,-10.8815
24.64512,-0.12704,-1.31157,-10.66228
24.65516,-0.02664,-1.24573,-10.52132
24.66519,0.00703,-1.13261,-10.32829
24.67523,0.08365,-1.10088,-10.20798
24.68527,0.15069,-1.1956,-10.09186
24.6953,0.19228,-1.28808,-9.89329
24.70534,0.22595,-1.39747,-9.61796
24.71538,0.19273,-1.47348,-9.43525
24.72541,0.00344,-1.44565,-9.4348
24.73545,-0.19333,-1.37831,-9.65596
24.74549,-0.25394,-1.39417,-9.97649
24.75553,-0.30661,-1.35871,-10.12568
24.76556,-0.40552,-1.26549,-10.18074
24.7756,-0.47809,-1.16538,-10.28923
24.78564,-0.49919,-1.06722,-10.37572
24.79567,-0.51775,-0.98851,-10.35268
24.80571,-0.45565,-0.98192,-10.29911
24.81575,-0.2882,-0.99689,-10.17386
24.82578,-0.19632,-1.01873,-9.93085
24.83582,-0.15158,-1.03115,-9.76924
24.84586,-0.12599,-1.00108,-9.73572
24.85589,-0.09113,-1.02996,-9.76221
24.86593,-0.04803,-1.06063,-9.77777
24.87597,0.02828,-1.04073,-9.79363
24.886,0.12031,-1.03714,-9.79363
24.89604,0.19782,-1.04282,-9.72076
24.90608,0.21338,-1.02517,-9.67781
24.91611,0.19573,-0.93419,-9.67706
24.92615,0.20171,-0.83378,-9.75637
24.93619,0.17163,-0.77901,-9.89972
24.94623,0.17358,-0.79577,-9.94342
24.95626,0.205,-0.89738,-9.90855
24.9663,0.23688,-0.99105,-9.81308
24.97634,0.24241,-1.03534,-9.69547
24.98637,0.19228,-1.04567,-9.57681
24.99641,0.14425,-1.05195,-9.52383
25.00645,0.10639,-1.08547,-9.52279
25.01648,0.04564,-1.09729,-9.5385
25.02652,0.01047,-1.13635,-9.61197
25.03656,-0.10549,-1.11061,-9.72345
25.04659,-0.24915,-1.02307,-9.85319
25.05663,-0.28431,-0.96741,-10.01554
25.06667,-0.27384,-0.98581,-10.09336
25.0767,-0.25109,-1.0096,-10.0145
25.08674,-0.23239,-1.01469,-9.82715
25.09678,-0.23957,-0.96636,-9.69532
25.10681,-0.27264,-0.88077,-9.6814
25.11685,-0.2704,-0.89004,-9.76026
25.12689,-0.25034,-0.9698,-9.83224
25.13692,-0.26695,-1.05524,-9.83942
25.14696,-0.26321,-1.10896,-9.81144
25.157,-0.26561,-1.11989,-9.72225
25.16704,-0.26291,-1.07066,-9.73019
25.17707,-0.20201,-1.06108,-9.80171
25.18711,-0.1227,-1.05375,-9.76206
25.19715,-0.05596,-1.08038,-9.66105
25.20718,-0.01437,-1.10208,-9.53835
25.21722,-0.00703,-1.12976,-9.42612
25.22726,0.02469,-1.15386,-9.41654
25.23729,0.13452,-1.19545,-9.54703
25.24733,0.21039,-1.29915,-9.55212
25.25737,0.24256,-1.4039,-9.5783
25.2674,0.25124,-1.4883,-9.6814
25.27744,0.31663,-1.53768,-9.79348
25.28748,0.39654,-1.5489,-9.9084
25.29751,0.51371,-1.50835,-9.98337
25.30755,0.6822,-1.46794,-10.06178
25.31759,0.80011,-1.37831,-10.04921
25.32762,0.93763,-1.22942,-9.99624
25.33766,1.11136,-1.12034,-9.95554
25.3477,1.3005,-0.98596,-9.90511
25.35773,1.43637,-0.83842,-9.88252
25.36777,1.59723,-0.78874,-9.85648
25.37781,1.72742,-0.77018,-9.7031
25.38785,1.77306,-0.7859,-9.44602
25.39788,1.74777,-0.83034,-9.21558
25.40792,1.65963,-0.90037,-9.09393
25.41796,1.54052,-0.93658,-9.08495
25.42799,1.37173,-0.99539,-9.13792
25.43803,1.14129,-1.02352,-9.17249
25.44807,0.87777,-1.05809,-9.22426
25.4581,0.65526,-1.20683,-9.26302
25.46814,0.48887,-1.36499,-9.24326
25.47818,0.41225,-1.52451,-9.29968
25.48821,0.394,-1.60471,-9.35205
25.49825,0.39639,-1.52166,-9.46218
25.50829,0.40282,-1.37487,-9.61721
25.51832,0.38921,-1.21491,-9.72031
25.52836,0.28267,-1.10747,-9.65492
25.5384,0.13048,-1.11121,-9.54239
25.54843,0.09996,-1.22089,-9.53865
25.55847,0.09218,-1.35931,-9.49914
25.56851,0.10789,-1.43383,-9.50393
25.57854,0.15248,-1.4045,-9.40427
25.58858,0.32052,-1.29601,-9.3745
25.59862,0.44383,-1.09729,-9.39515
25.60866,0.41704,-0.83617,-9.40278
25.61869,0.27623,-0.69477,-9.42253
25.62873,0.1251,-0.64569,-9.46877
25.63877,0.02843,-0.67935,-9.60314
25.6488,0.04085,-0.74864,-9.69278
25.65884,0.17403,-0.75956,-9.73153
25.66888,0.25184,-0.74235,-9.76595
25.67891,0.26845,-0.79772,-9.68021
25.68895,0.10026,-0.90501,-9.40876
25.69899,-0.17403,-0.96965,-9.37001
25.70902,-0.35195,-0.9508,-9.81368
25.71969,-0.14171,-0.91743,-10.16309
25.72972,-0.14171,-0.91743,-10.16309
25.73976,0.15637,-0.82585,-10.35223
25.7498,0.46852,-0.61157,-10.25377
25.75983,0.74669,-0.36078,-9.9497
25.76987,0.87029,-0.11268,-9.59132
25.77991,0.85578,0.00135,-9.25164
25.78994,0.85832,-0.14904,-9.25553
25.79998,0.88915,-0.37948,-9.71732
25.81002,0.60005,-0.36167,-9.86561
25.82005,0.36616,-0.25648,-9.8668
25.83009,0.1459,-0.12884,-9.67856
25.84013,0.13617,-0.08619,-9.42193
25.85016,0.27967,-0.09263,-9.38512
25.8602,0.29688,-0.1441,-9.54389
25.87024,0.18899,-0.13976,-9.67557
25.88028,-0.03921,-0.11836,-9.79618
25.89031,-0.32127,-0.12839,-9.94267
25.90035,-0.53421,-0.17403,-10.10069
25.91039,-0.58,-0.21982,-10.18044
25.92042,-0.61037,-0.19064,-10.26499
25.93046,-0.58134,-0.13348,-10.33891
25.9405,-0.53825,-0.04923,-10.37348
25.95053,-0.59705,0.00778,-10.29222
25.96057,-0.79218,0.01077,-10.06627
25.97061,-1.00212,-0.05222,-9.86471
25.98064,-1.14757,-0.14545,-9.76236
25.99068,-1.23631,-0.23837,-9.77448
26.00072,-1.29676,-0.32965,-9.86935
26.01075,-1.38505,-0.36152,-9.96736
26.02079,-1.51777,-0.39055,-10.10443
26.03083,-1.72562,-0.38337,-10.15366
26.04086,-1.88214,-0.35823,-10.18897
26.0509,-1.92838,-0.36856,-10.31243
26.06094,-1.89307,-0.4121,-10.51533
26.07097,-1.88439,-0.43545,-10.6527
26.08101,-2.00469,-0.39983,-10.37213
26.09105,-2.065,-0.37529,-9.95569
26.10108,-2.01532,-0.44607,-9.5807
26.11112,-2.00874,-0.60079,-9.37943
26.12116,-2.09627,-0.70779,-9.32257
26.1312,-2.19848,-0.73068,-9.34801
26.14123,-2.26297,-0.76091,-9.48358
26.15127,-2.17438,-0.87358,-9.72151
26.16131,-2.02669,-1.00332,-9.97978
26.17134,-2.01292,-1.04836,-10.02407
26.18138,-2.01786,-0.95768,-9.69293
26.19142,-1.95442,-0.81358,-9.38228
26.20145,-1.86583,-0.74819,-9.21019
26.21149,-1.84713,-0.76061,-9.12355
26.22153,-1.92628,-0.82615,-9.10784
26.23156,-2.04091,-0.8869,-9.27618
26.2416,-2.10869,-0.97414,-9.53117
26.25164,-2.08101,-1.04043,-9.75592
26.26167,-1.97417,-0.9894,-9.9117
26.27171,-1.8374,-0.83303,-9.8276
26.28175,-1.72727,-0.67202,-9.70011
26.29178,-1.64826,-0.60259,-9.69233
26.30182,-1.55967,-0.62519,-9.63936
26.31186,-1.43877,-0.60304,-9.54523
26.32189,-1.33776,-0.61606,-9.47894
26.33193,-1.24932,-0.60199,-9.39141
26.34197,-1.17451,-0.57177,-9.38452
26.352,-1.15445,-0.5556,-9.47879
26.36204,-1.17256,-0.57775,-9.61466
26.37208,-1.24349,-0.64479,-9.82296
26.38212,-1.23466,-0.7832,-9.91184
26.39278,-1.13934,-0.87164,-9.79618
26.40282,-1.13934,-0.87164,-9.79617
26.41285,-1.13755,-0.81702,-9.60419
26.42289,-1.02352,-0.80056,-9.59506
26.43293,-0.87134,-0.78141,-9.59895
26.44296,-0.75687,-0.7437,-9.54059
26.453,-0.72859,-0.69552,-9.44153
26.46304,-0.71108,-0.70913,-9.37285
26.47307,-0.68684,-0.76585,-9.40712
26.48311,-0.6213,-0.84426,-9.58085
26.49315,-0.60199,-0.86266,-9.71866
26.50318,-0.62788,-0.79173,-9.70086
26.51322,-0.57266,-0.71751,-9.76774
26.52326,-0.51775,-0.66693,-9.84945
26.53329,-0.48198,-0.60439,-9.92995
26.54333,-0.43305,-0.5568,-9.94432
26.55337,-0.42677,-0.52643,-9.8463
26.56341,-0.39699,-0.50727,-9.7245
26.57344,-0.42168,-0.52987,-9.63576
26.58348,-0.45535,-0.57266,-9.59536
26.59352,-0.40911,-0.59646,-9.67766
26.60355,-0.394,-0.57326,-9.87234
26.61359,-0.35988,-0.52209,-9.97364
26.62363,-0.2885,-0.48408,-10.00058
26.63366,-0.33504,-0.44772,-9.92636
26.6437,-0.40851,-0.46896,-9.77777
26.65374,-0.42976,-0.56817,-9.72555
26.66377,-0.44592,-0.65257,-9.66494
26.67381,-0.45505,-0.68594,-9.68155
26.68385,-0.45176,-0.66394,-9.70774
26.69388,-0.42811,-0.62474,-9.7854
26.70392,-0.40507,-0.59197,-9.90631
26.71396,-0.39489,-0.52328,-9.97858
26.72399,-0.35838,-0.50967,-9.94342
26.73403,-0.31514,-0.48123,-9.84945
26.74407,-0.29314,-0.42183,-9.76505
26.7541,-0.31274,-0.40956,-9.68499
26.76414,-0.32561,-0.42976,-9.62978
26.77418,-0.40567,-0.49425,-9.73258
26.78422,-0.52209,-0.56638,-9.87144
26.79425,-0.55022,-0.63551,-9.94761
26.80429,-0.53136,-0.66514,-9.95045
26.81432,-0.52059,-0.61501,-9.82146
26.82436,-0.48827,-0.52029,-9.67512
26.8344,-0.44577,-0.43185,-9.59746
26.84444,-0.39639,-0.40701,-9.56079
26.85447,-0.38846,-0.46702,-9.54658
26.86451,-0.45565,-0.57042,-9.51905
26.87455,-0.5381,-0.68908,-9.48463
26.88458,-0.60154,-0.74235,-9.4758
26.89462,-0.67502,-0.72963,-9.46338
26.90466,-0.73188,-0.70958,-9.49331
26.91469,-0.70883,-0.66334,-9.55436
26.92473,-0.67636,-0.56593,-9.67826
26.93477,-0.69641,-0.45669,-9.78824
26.9448,-0.72754,-0.35733,-9.92127
26.95484,-0.72589,-0.34611,-10.15336
26.96488,-0.78799,-0.36212,-10.31617
26.97491,-0.89992,-0.37454,-10.33188
26.98495,-1.02068,-0.40282,-10.28609
26.99499,-1.15296,-0.4145,-10.30749
27.00502,-1.31023,-0.43515,-10.39443
27.01506,-1.3412,-0.44891,-10.55978
27.0251,-1.32803,-0.52388,-10.66527
27.03513,-1.42799,-0.60005,-10.71555
27.04517,-1.57823,-0.63042,-10.74533
27.05521,-1.71515,-0.63267,-10.70747
27.06525,-1.93212,-0.56264,-10.75625
27.07528,-2.0439,-0.54259,-10.97652
27.08532,-2.15912,-0.6385,-11.05373
27.09536,-2.26955,-0.82196,-10.98879
27.10539,-2.49865,-1.05629,-10.76523
27.11543,-2.79568,-1.25666,-10.65704
27.12547,-2.88008,-1.33507,-10.68817
27.1355,-2.17379,-0.46073,-10.82194
27.14554,-1.85012,-0.20994,-11.2927
27.15558,-2.24187,-0.25274,-11.41825
27.16561,-2.46348,-0.17971,-11.73518
27.17565,-2.47246,-0.18914,-12.406
27.18569,-2.54653,-0.06704,-12.62388
27.19572,-2.61372,0.03831,-12.35962
27.20576,-2.57721,-0.03935,-11.87763
27.2158,-2.54219,-0.21353,-11.28432
27.22583,-2.42473,-0.45131,-11.04849
27.23587,-2.37759,-0.66245,-11.07064
27.24591,-2.48024,-0.81313,-11.13798
27.25594,-2.62749,-0.90037,-11.29973
27.26598,-2.57018,-1.01529,-11.55352
27.27602,-2.4352,-1.07769,-11.74984
27.28605,-2.40752,-1.135,-11.95724
27.29609,-2.48967,-1.09295,-11.83319
27.30613,-2.49132,-0.93344,-11.38114
27.31617,-2.28452,-0.95963,-11.79518
27.3262,-2.01816,-0.88316,-11.72426
27.33624,-1.95232,-0.8857,-11.26352
27.34628,-2.36248,-0.83363,-10.87087
27.35631,-2.77353,-0.927,-10.90634
27.36635,-2.77548,-1.26878,-11.07677
27.37639,-2.64933,-1.51014,-11.0449
27.38642,-2.42099,-1.48725,-10.77615
27.39646,-2.19877,-1.3219,-10.33951
27.4065,-2.00724,-1.17585,-10.08064
27.41653,-1.77291,-1.24513,-10.22414
27.42657,-1.5911,-1.33956,-10.32544
27.43661,-1.5703,-1.28628,-10.12478
27.44664,-1.56087,-1.24768,-9.86202
27.45668,-1.52376,-1.27222,-9.59895
27.46672,-1.43697,-1.23601,-9.49032
27.47675,-1.43323,-1.11809,-9.69427
27.48679,-1.47662,-0.9499,-9.95165
27.49683,-1.42605,-0.889,-10.20663
27.50686,-1.27297,-0.97414,-10.33756
27.5169,-1.14488,-1.12064,-10.17371
27.52694,-1.06766,-1.19964,-9.7646
27.53697,-1.03699,-1.1772,-9.34188
27.54701,-0.87254,-1.16149,-9.19269
27.55705,-0.5366,-1.28434,-9.19852
27.56709,-0.28686,-1.31292,-8.98768
27.57712,-0.27623,-1.30005,-8.67584
27.58716,-0.18181,-1.33746,-8.53877
27.5972,0.0199,-1.45148,-8.37582
27.60723,0.09412,-1.40854,-8.19296
27.61727,0.08844,-1.3216,-8.05754
27.62731,-0.07272,-1.22538,-8.41023
27.63734,-0.45265,-1.1142,-9.49914
27.64738,-0.71183,-1.18857,-10.25317
27.65742,-0.78156,-1.24319,-10.30165
27.66745,-0.5999,-1.33941,-9.76101
27.67749,-0.20066,-1.59843,-9.05771
27.68753,0.11253,-1.81316,-8.60072
27.69756,0.38786,-1.94409,-8.09764
27.7076,0.59825,-1.98853,-7.5995
27.71764,0.66319,-1.8805,-7.4726
27.72767,0.67112,-1.72143,-7.72235
27.73771,0.60484,-1.5682,-8.06053
27.74775,0.43814,-1.37921,-8.28289
27.75779,0.27503,-1.17106,-8.45767
27.76782,0.11103,-0.93179,-8.90344
27.77786,0.03472,-0.70883,-9.40921
27.7879,0.11791,-0.60603,-9.45799
27.79793,0.29374,-0.60439,-9.18012
27.80797,0.49141,-0.62668,-8.79121
27.81801,0.68998,-0.66334,-8.04332
27.82804,0.77527,-0.71557,-7.28556
27.83808,0.83154,-0.76181,-6.79774
27.84812,1.0304,-0.9493,-6.75539
27.85815,1.2785,-1.0741,-7.24276
27.86819,1.41004,-1.11899,-7.68284
27.87823,1.35796,-1.14622,-7.64214
27.88826,1.25052,-1.09355,-7.5579
27.8983,1.1362,-1.08008,-7.64768
27.90834,0.97205,-1.10537,-7.59246
27.91837,0.85802,-1.18154,-7.53081
27.92841,0.82136,-1.34404,-7.80809
27.93845,0.83243,-1.51463,-8.2184
27.94849,0.8049,-1.55803,-8.33317
27.95852,0.80206,-1.59259,-8.32284
27.96856,0.86251,-1.63898,-8.46979
27.9786,0.92072,-1.65828,-8.55673
27.98863,1.11196,-1.62028,-8.47742
27.99867,1.32354,-1.48441,-8.25177
28.00871,1.43293,-1.39492,-7.9697
28.01874,1.48156,-1.31322,-7.93678
28.02878,1.488,-1.22404,-8.18024
28.03882,1.46376,-1.17436,-8.35053
28.04885,1.50401,-1.17241,-8.55314
28.05889,1.54875,-1.1549,-8.74288
28.06893,1.61624,-1.14563,-8.79959
28.07896,1.66696,-1.15595,-8.75739
28.089,1.66891,-1.12602,-8.61883
28.09904,1.67205,-1.11031,-8.52755
28.10907,1.70811,-1.03534,-8.55344
28.11911,1.72637,-0.97803,-8.39003
28.12915,1.66816,-1.02606,-8.21825
28.13918,1.61833,-1.20967,-8.27601
28.14922,1.5052,-1.44685,-8.47652
28.15926,1.28883,-1.5893,-8.76622
28.16929,1.04148,-1.6737,-9.07253
28.17933,0.77348,-1.69061,-9.23159
28.18937,0.52912,-1.66412,-9.28486
28.19941,0.29898,-1.64257,-9.38273
28.20944,0.13467,-1.58212,-9.47894
28.21948,-0.04175,-1.56012,-9.55915
28.22952,-0.28745,-1.46869,-9.70729
28.23955,-0.4118,-1.41557,-9.95973
28.24959,-0.3078,-1.4259,-10.03051
28.25963,-0.10475,-1.3617,-10.05041
28.26966,0.11133,-1.2185,-10.08842
28.2797,0.2288,-1.02891,-10.06822
28.28974,0.31095,-0.87792,-10.02183
28.29977,0.42332,-0.80191,-9.97888
28.30981,0.57087,-0.81971,-9.87099
28.31985,0.66035,-0.87284,-9.74889
28.32988,0.60005,-0.87718,-9.67691
28.33992,0.4329,-0.807,-9.67602
28.34996,0.30915,-0.82854,-9.82925
28.35999,0.27458,-0.94661,-9.91334
28.37003,0.29344,-1.05255,-9.82326
28.38007,0.34327,-1.17181,-9.69996
28.3901,0.36766,-1.2405,-9.58354
28.40014,0.29134,-1.27222,-9.56543
28.41018,0.18166,-1.24543,-9.68021
28.42022,0.11836,-1.22942,-9.82416
28.43025,0.04699,-1.22059,-9.91244
28.44029,-0.05043,-1.18259,-9.9087
28.45033,-0.06644,-1.14622,-9.87863
28.46036,-0.00075,-1.11869,-9.84361
28.4704,0.04384,-1.11959,-9.83912
28.48044,-0.00434,-1.03953,-9.86441
28.49047,-0.06958,-0.93898,-9.84885
28.50051,-0.09023,-0.87373,-9.88671
28.51055,-0.09367,-0.82331,-9.94566
28.52058,-0.10475,-0.76016,-9.96856
28.53062,-0.09307,-0.73427,-9.95599
28.54066,-0.07706,-0.72739,-9.84256
28.55069,-0.10789,-0.71871,-9.66614
28.56073,-0.19169,-0.69028,-9.5798
28.57077,-0.22865,-0.6795,-9.45485
28.5808,-0.24286,-0.73697,-9.35878
28.59084,-0.21907,-0.82705,-9.39365
28.60088,-0.21338,-0.91473,-9.34427
28.61091,-0.21443,-1.00601,-9.26541
28.62095,-0.25453,-1.01888,-9.24117
28.63099,-0.2496,-1.02008,-9.15692
28.64103,-0.19348,-0.99015,-9.03661
28.65106,-0.13542,-0.91623,-8.79286
28.6611,-0.01885,-0.88062,-8.55134
28.67114,0.06015,-0.82061,-8.40484
28.68117,0.1429,-0.73906,-8.33541
28.69121,0.20231,-0.67307,-8.24413
28.70125,0.2068,-0.62219,-8.1753
28.71128,0.27623,-0.64404,-8.12906
28.72132,0.35763,-0.69941,-8.06068
28.73136,0.36467,-0.77991,-7.88426
28.74139,0.37245,-0.86715,-7.73821
28.75143,0.44128,-0.95274,-7.60129
28.76147,0.49006,-0.9921,-7.37309
28.7715,0.49575,-0.97279,-7.09791
28.78154,0.62848,-1.05524,-6.72127
28.79158,0.8655,-1.2794,-6.3168
28.80161,1.06467,-1.56536,-6.07199
28.81165,1.22015,-1.76483,-6.03922
28.82169,1.30634,-1.91671,-6.13394
28.83172,1.2999,-1.98524,-6.23271
28.84176,1.21745,-1.94813,-6.31486
28.8518,1.03594,-1.85506,-6.36244
28.86183,0.79802,-1.75959,-6.48993
28.87187,0.52643,-1.71679,-6.7937
28.88191,0.16939,-1.62207,-7.15687
28.89194,-0.17582,-1.45478,-7.50956
28.90198,-0.51655,-1.27312,-7.94216
28.91202,-0.74968,-1.17944,-8.39467
28.92206,-0.72978,-1.18169,-8.84553
28.93209,-0.59077,-1.17645,-9.25539
28.94213,-0.46717,-1.19516,-9.55002
28.95217,-0.35,-1.20982,-9.7236
28.9622,-0.31738,-1.20907,-9.65806
28.97224,-0.42722,-1.1166,-9.37614
28.98228,-0.63506,-0.96786,-9.11802
28.99231,-0.84186,-0.78979,-9.23638
29.00235,-1.06228,-0.56623,-9.81638
29.01239,-1.25591,-0.39953,-10.50157
29.02242,-1.28299,-0.40911,-10.84618
29.03246,-1.14742,-0.53466,-10.74233
29.0425,-0.94466,-0.67636,-10.56471
29.05253,-0.75208,-0.87134,-10.63594
29.06257,-0.64733,-1.02861,-10.8399
29.07261,-0.69716,-0.96801,-10.83257
29.08264,-0.84306,-0.80206,-10.66392
29.09268,-0.99195,-0.67756,-10.61424
29.10272,-1.1368,-0.59077,-10.59988
29.11275,-1.25486,-0.6201,-10.53957
29.12279,-1.2381,-0.83004,-10.56277
29.13283,-1.24738,-1.08412,-10.66258
29.14286,-1.29706,-1.2779,-10.94689
29.1529,-1.40181,-1.4021,-11.45775
29.16294,-1.4853,-1.53723,-11.87569
29.17298,-1.47722,-1.71649,-11.90981
29.18301,-1.46136,-1.89531,-11.5414
29.19305,-1.52511,-1.91521,-11.07633
29.20309,-1.61893,-1.83486,-10.73006
29.21312,-1.72772,-1.77036,-10.42839
29.22316,-1.7539,-1.76857,-10.34235
29.2332,-1.78667,-1.753,-10.52177
29.24323,-1.72203,-1.84294,-10.57654
29.25327,-1.48156,-2.03956,-10.30375
29.26331,-1.26713,-2.12036,-10.04637
29.27334,-1.11061,-1.98868,-9.90766
29.28338,-1.00422,-1.70587,-9.87533
29.29342,-0.91099,-1.40959,-10.00342
29.30345,-0.80715,-1.16942,-10.2204
29.31349,-0.662,-1.03355,-10.07989
29.32353,-0.58299,-1.08936,-9.45725
29.33356,-0.56563,-1.23496,-9.34038
29.3436,-0.53032,-1.41572,-9.88611
29.35364,-0.64853,-1.42021,-10.30958
29.36368,-0.76839,-1.33312,-10.47194
29.37371,-0.86745,-1.24229,-10.54376
29.38375,-1.00721,-1.20084,-10.43543
29.39378,-1.09744,-1.20219,-10.39981
29.40382,-1.19755,-1.20892,-10.57504
29.41386,-1.32549,-1.18079,-10.86519
29.4239,-1.41632,-1.1787,-11.16476
29.43393,-1.44251,-1.11211,-11.35824
29.44397,-1.3852,-1.00467,-11.34268
29.45401,-1.31921,-0.84845,-11.30497
29.46404,-1.28853,-0.67023,-11.39715
29.47408,-1.28838,-0.57835,-11.54738
29.48412,-1.28509,-0.57311,-11.61607
29.49415,-1.28449,-0.6204,-11.41555
29.50419,-1.31561,-0.75477,-10.89811
29.51423,-1.35661,-0.90157,-10.46206
29.52426,-1.38759,-1.06407,-10.47807
29.5343,-1.48246,-1.10717,-10.77106
29.54434,-1.54396,-1.13201,-11.17778
29.55437,-1.42036,-1.12168,-11.34986
29.56441,-1.24244,-0.9683,-11.21669
29.57445,-1.03355,-0.75941,-11.15339
29.58448,-0.87149,-0.65571,-11.11658
29.59452,-0.80774,-0.54513,-11.04565
29.60456,-0.7232,-0.476,-10.79695
29.61459,-0.68998,-0.51311,-10.51503
29.62463,-0.67307,-0.60289,-10.36315
29.63467,-0.71527,-0.7036,-10.29133
29.64471,-0.87044,-0.75447,-10.45219
29.65474,-1.05809,-0.75163,-10.72228
29.66478,-1.06632,-0.78066,-10.82419
29.67482,-0.99808,-0.74549,-10.75236
29.68485,-0.88092,-0.71003,-10.50127
29.69489,-0.73951,-0.68729,-10.16892
29.70493,-0.65152,-0.64973,-9.88102
29.71559,-0.71063,-0.63581,-9.89972
29.72563,-0.83034,-0.68863,-9.93205
29.73566,-0.97309,-0.71751,-9.87084
29.7457,-1.02023,-0.76031,-9.8493
29.75574,-0.99419,-0.75043,-9.84077
29.76577,-0.92506,-0.69417,-9.82535
29.77581,-0.80729,-0.6201,-9.78121
29.78585,-0.72724,-0.56354,-9.63157
29.79589,-0.7235,-0.51909,-9.52952
29.80592,-0.76255,-0.49395,-9.52369
29.81596,-0.76734,-0.52613,-9.63157
29.826,-0.75597,-0.59661,-9.68335
29.83603,-0.73667,-0.65032,-9.6187
29.84607,-0.71901,-0.73876,-9.54104
29.85611,-0.72275,-0.80221,-9.44513
29.86614,-0.74968,-0.7829,-9.45949
29.87618,-0.81193,-0.68295,-9.60165
29.88622,-0.79862,-0.56563,-9.73108
29.89625,-0.78021,-0.47839,-9.93683
29.90629,-0.69028,-0.43784,-10.0558
29.91633,-0.55545,-0.41779,-9.98367
29.92636,-0.45176,-0.44742,-9.86516
29.9364,-0.47719,-0.44577,-9.76041
29.94644,-0.69776,-0.39744,-9.78585
29.95647,-0.84934,-0.40327,-9.88267
29.96651,-0.86146,-0.47315,-9.91319
29.97655,-0.77542,-0.60169,-9.85768
29.98658,-0.65796,-0.72978,-9.76161
29.99662,-0.59511,-0.76076,-9.71866
30.00666,-0.69177,-0.69372,-9.72016
30.01669,-0.82121,-0.63087,-9.71911
30.02673,-0.80774,-0.64105,-9.72345
30.03677,-0.71317,-0.67935,-9.71522
30.04681,-0.63057,-0.72365,-9.67347
30.05684,-0.6201,-0.70749,-9.7016
30.06688,-0.74325,-0.63192,-9.77119
30.07692,-0.91458,-0.59062,-9.78241
30.08695,-0.90112,-0.63401,-9.77283
30.09699,-0.8067,-0.70584,-9.72614
30.10703,-0.66514,-0.74385,-9.67257
30.11706,-0.61516,-0.70494,-9.64085
30.1271,-0.59137,-0.67965,-9.68021
30.13714,-0.58613,-0.65122,-9.75503
30.14717,-0.57715,-0.63147,-9.77119
30.15721,-0.5981,-0.60528,-9.81787
30.16725,-0.61785,-0.59182,-9.82131
30.17728,-0.57191,-0.662,-9.75637
30.18732,-0.49156,-0.71437,-9.70205
30.19736,-0.43036,-0.67472,-9.71417
30.20739,-0.35718,-0.60154,-9.7649
30.21743,-0.27743,-0.51311,-9.84945
30.22747,-0.15428,-0.5161,-9.78046
30.2375,-0.02963,-0.54737,-9.76834
30.24754,0.07856,-0.58074,-9.74739
30.25758,0.11657,-0.57266,-9.63846
30.26761,0.07646,-0.5565,-9.52653
30.27765,0.07676,-0.56653,-9.5391
30.28769,0.17957,-0.62788,-9.63442
30.29772,0.32771,-0.73846,-9.73467
30.30776,0.40612,-0.80191,-9.7667
30.3178,0.44442,-0.77557,-9.641
30.32784,0.44936,-0.70255,-9.61691
30.33787,0.43365,-0.67861,-9.61077
30.34791,0.34925,-0.68235,-9.3947
30.35795,0.26351,-0.66035,-9.32332
30.36798,0.25408,-0.71676,-9.44797
30.37802,0.32666,-0.72978,-9.69278
30.38806,0.42587,-0.85712,-10.02362
30.39872,0.42437,-0.93299,-10.0531
30.40876,0.40193,-1.07739,-10.32305
30.41879,0.36542,-1.30888,-10.43423
30.42883,0.15024,-1.20713,-9.90152
30.43887,0.14575,-1.03639,-9.57396
30.4489,0.20036,-0.95349,-9.48044
30.45894,0.2888,-0.82286,-9.25524
30.46898,0.3931,-0.76779,-9.18176
30.47901,0.54274,-0.89528,-9.25494
30.48905,0.81612,-1.01783,-9.3296
30.49909,1.00437,-1.05839,-9.30761
30.50912,1.1576,-1.11091,-9.45321
30.51916,1.32205,-1.14114,-9.78136
30.5292,1.37682,-1.06258,-9.92935
30.53924,1.31921,-0.99629,-9.78495
30.54927,1.29077,-0.94526,-9.7019
30.55931,1.33267,-0.84007,-9.78989
30.56935,1.32938,-0.81702,-9.85409
30.57938,1.34838,-0.90621,-9.73093
30.58942,1.41228,-0.94855,-9.55915
30.59946,1.54246,-0.96082,-9.36866
30.60949,1.71305,-1.0509,-9.33439
30.61953,1.86044,-1.11749,-9.43869
30.62957,1.89262,-1.12468,-9.56065
30.6396,1.76288,-1.01125,-9.63292
30.64964,1.61953,-0.97863,-9.59985
30.65968,1.48261,-0.95843,-9.61736
30.66971,1.39747,-1.00212,-9.58414
30.67975,1.37307,-0.99569,-9.58324
30.68979,1.35751,-0.95454,-9.62738
30.69982,1.35781,-0.92042,-9.6398
30.70986,1.28509,-0.87044,-9.67602
30.7199,1.21296,-0.85952,-9.73617
30.72993,1.10867,-0.85293,-9.7878
30.73997,1.02202,-0.85922,-9.65986
30.75001,0.98686,-0.8866,-9.65881
30.76004,0.96322,-0.91892,-9.69517
30.77008,0.93883,-0.9074,-9.73303
30.78012,0.94317,-0.88271,-9.82296
30.79015,0.94287,-0.88361,-9.70834
30.80019,0.9493,-0.86116,-9.52024
30.81023,0.91653,-0.81777,-9.39919
30.82027,0.81867,-0.80864,-9.45081
30.8303,0.76405,-0.88541,-9.60075
30.84034,0.76375,-1.04372,-9.7441
30.85038,0.66215,-1.10178,-9.75727
30.86041,0.50473,-1.0741,-9.65447
30.87045,0.37335,-1.01365,-9.62993
30.88049,0.29299,-0.9915,-9.70101
30.89052,0.16759,-1.01739,-9.82655
30.90056,0.08245,-1.07155,-10.04173
30.9106,0.05641,-1.13216,-10.09216
30.92063,-0.02394,-1.18872,-9.94656
30.93067,-0.14395,-1.20488,-9.7037
30.94071,-0.21982,-1.21625,-9.58938
30.95074,-0.31933,-1.21266,-9.60359
30.96078,-0.41584,-1.23601,-9.71851
30.97082,-0.42871,-1.28763,-9.85438
30.98085,-0.44966,-1.35003,-9.91199
30.99089,-0.55381,-1.33956,-9.79528
31.00093,-0.63177,-1.30918,-9.72345
31.01096,-0.58733,-1.30185,-9.75772
31.021,-0.52538,-1.26234,-9.76625
31.03104,-0.49291,-1.25307,-9.71642
31.04107,-0.57027,-1.25561,-9.65282
31.05111,-0.69941,-1.3424,-9.73707
31.06115,-0.75432,-1.41722,-9.71537
31.07119,-0.74534,-1.39866,-9.65237
31.08122,-0.72709,-1.30185,-9.64788
31.09126,-0.69327,-1.25172,-9.66479
31.1013,-0.71542,-1.2806,-9.64145
31.11133,-0.76345,-1.2996,-9.62559
31.12137,-0.77752,-1.2782,-9.65372
31.13141,-0.71272,-1.23182,-9.73542
31.14144,-0.62234,-1.19261,-9.77927
31.15148,-0.59915,-1.12168,-9.69352
31.16152,-0.62668,-1.07215,-9.59865
31.17155,-0.65646,-1.07694,-9.61317
31.18159,-0.70973,-1.14578,-9.65192
31.19163,-0.70734,-1.2188,-9.69726
31.20166,-0.6418,-1.27237,-9.73243
31.2117,-0.64494,-1.30304,-9.62544
31.22174,-0.69043,-1.28359,-9.44602
31.23177,-0.68579,-1.28958,-9.34457
31.24181,-0.65811,-1.33746,-9.37465
31.25185,-0.61007,-1.37637,-9.57965
31.26188,-0.64898,-1.32803,-9.71148
31.27192,-0.70524,-1.24573,-9.81533
31.28196,-0.68549,-1.19875,-9.88641
31.29199,-0.65077,-1.17017,-9.91185
31.30203,-0.68833,-1.17301,-9.89943
31.31207,-0.71302,-1.17061,-9.88446
31.3221,-0.77422,-1.19531,-9.91828
31.33214,-0.87478,-1.21446,-9.9081
31.34218,-0.88301,-1.21446,-9.89793
31.35222,-0.79892,-1.20578,-9.90601
31.36225,-0.74295,-1.18079,-9.89718
31.37229,-0.61531,-1.16463,-9.8671
31.38232,-0.54079,-1.13365,-9.80785
31.39236,-0.53017,-1.10702,-9.68634
31.4024,-0.5354,-1.10253,-9.61885
31.41244,-0.55141,-1.1371,-9.69263
31.42247,-0.53944,-1.15595,-9.86621
31.43251,-0.53047,-1.12677,-9.99774
31.44255,-0.49171,-1.06587,-10.00851
31.45258,-0.44098,-0.99524,-9.92711
31.46262,-0.34746,-0.97279,-9.80336
31.47266,-0.28611,-1.00078,-9.69472
31.48269,-0.32397,-1.04851,-9.61601
31.49273,-0.3319,-1.0928,-9.57845
31.50277,-0.25798,-1.18169,-9.65118
31.5128,-0.28237,-1.21491,-9.77373
31.52284,-0.38876,-1.20264,-9.70056
31.53288,-0.43545,-1.22793,-9.58174
31.54291,-0.37409,-1.27985,-9.59641
31.55295,-0.24107,-1.30454,-9.57606
31.56299,-0.09801,-1.22808,-9.43315
31.57302,0.04459,-1.09984,-9.39485
31.58306,0.16101,-1.00272,-9.46413
31.5931,0.21204,-0.94706,-9.53401
31.60313,0.21548,-0.95214,-9.60973
31.61317,0.19393,-0.97354,-9.69188
31.62321,0.16325,-1.0343,-9.71941
31.63325,0.15921,-1.07051,-9.73063
31.64328,0.15951,-1.08263,-9.75039
31.65332,0.16655,-1.08996,-9.75368
31.66336,0.14096,-1.06362,-9.72076
31.67339,0.14275,-1.04926,-9.73632
31.68343,0.13572,-1.06826,-9.78974
31.69347,0.09831,-1.09235,-9.83762
31.7035,0.07347,-1.09191,-9.87952
31.71354,0.06674,-1.06153,-9.87907
31.72358,0.1019,-1.04537,-9.84181
31.73361,0.13737,-1.05285,-9.85199
31.74365,0.12899,-1.05135,-9.81219
31.75369,0.1453,-1.01679,-9.76146
31.76372,0.19543,-0.9683,-9.76041
31.77376,0.20396,-0.94332,-9.73662
31.7838,0.15069,-0.95603,-9.78765
31.79383,0.06524,-1.02053,-9.89045
31.80387,-0.00135,-1.08338,-9.93055
31.81391,-0.01631,-1.09714,-9.9304
31.82394,0.022,-1.09131,-9.87728
31.83398,0.02379,-1.08427,-9.89464
31.84402,0.03831,-1.01888,-9.82461
31.85405,0.08215,-0.97594,-9.73931
31.86409,0.09996,-0.96067,-9.66285
31.87413,0.0639,-0.97938,-9.59057
31.88417,0.02753,-1.07799,-9.71313
31.8942,0.00269,-1.1555,-9.81787
31.90424,-0.03127,-1.12378,-9.67512
31.91428,-0.01033,-1.10552,-9.58713
31.92431,0.03442,-1.10014,-9.54089
31.93435,0.03427,-1.10777,-9.53386
31.94439,0.04609,-1.14069,-9.63172
31.95442,0.05492,-1.12288,-9.70834
31.96446,0.04489,-1.05539,-9.66928
31.9745,0.03352,-1.0123,-9.63591
31.98453,0.01975,-1.02726,-9.60254
31.99457,0.08918,-1.10373,-9.61766
32.00461,0.12106,-1.16119,-9.60599
32.01464,0.09502,-1.13395,-9.53536
32.02468,0.09337,-1.07245,-9.49331
32.03472,0.12375,-1.02532,-9.50169
32.04475,0.20276,-0.98716,-9.52279
32.05479,0.25992,-0.98477,-9.63142
32.06483,0.22999,-0.95259,-9.75054
32.07486,0.10968,-0.92207,-9.82535
32.0849,0.08484,-0.9508,-9.85349
32.09494,0.09921,-1.01379,-9.88057
32.10497,0.07946,-1.07245,-9.85783
32.11501,-0.0009,-1.0943,-9.81323
32.12505,-0.04579,-1.12019,-9.73916
32.13509,-0.02589,-1.12722,-9.7031
32.14512,0.01107,-1.09714,-9.70654
32.15516,0.05806,-1.05644,-9.70759
32.1652,0.09337,-1.02038,-9.76385
32.17523,0.12151,-0.9912,-9.78226
32.18527,0.17672,-0.99509,-9.79408
32.19531,0.19977,-0.96456,-9.74365
32.20534,0.17986,-0.94167,-9.6838
32.21538,0.18061,-0.97788,-9.68051
32.22542,0.16116,-1.03923,-9.67632
32.23545,0.06255,-1.10163,-9.72734
32.24549,-0.04699,-1.1555,-9.80426
32.25553,-0.16355,-1.19007,-9.96796
32.26556,-0.17463,-1.17555,-10.06567
32.2756,-0.09667,-1.09879,-9.98831
32.28564,0.01646,-1.01245,-9.92247
32.29567,0.13063,-1.01679,-9.8882
32.30571,0.16804,-1.04357,-9.88641
32.31575,0.10654,-1.07245,-9.931
32.32578,0.01511,-1.12138,-9.93264
32.33582,-0.05731,-1.16134,-9.92875
32.34586,-0.09726,-1.20458,-9.95539
32.35589,-0.10953,-1.22074,-9.95883
32.36593,-0.15158,-1.19456,-10.01734
32.37597,-0.15487,-1.20982,-10.17057
32.386,-0.16685,-1.21461,-10.33532
32.39604,-0.20291,-1.25217,-10.5481
32.40608,-0.29583,-1.32923,-10.80817
32.41612,-0.47211,-1.32968,-10.97517
32.42615,-0.64239,-1.32459,-11.14202
32.43619,-0.74145,-1.36859,-11.46119
32.44623,-0.77991,-1.42335,-11.82302
32.45626,-0.82226,-1.52466,-12.0777
32.4663,-0.87673,-1.72008,-12.41349
32.47634,-0.92147,-1.96788,-12.84355
32.48637,-0.96681,-2.25923,-13.30982
32.49641,-1.12019,-2.41395,-13.67748
32.50645,-1.4024,-2.40108,-13.98154
32.51648,-1.72562,-2.29918,-14.31792
32.52652,-2.02684,-2.11917,-14.68424
32.53656,-2.27704,-1.90534,-14.99025
32.54659,-2.50852,-1.71709,-15.16323
32.55663,-2.63691,-1.61953,-15.31735
32.56667,-2.6619,-1.4883,-15.32768
32.5767,-2.65607,-1.30379,-15.12851
32.58674,-2.51945,-1.14248,-14.72838
32.59678,-2.30651,-1.04791,-14.20046
32.60681,-2.05228,-0.98357,-13.65009
32.61685,-1.83695,-0.93224,-13.1503
32.62689,-1.70347,-0.91264,-12.71366
32.63692,-1.67025,-0.84321,-12.22629
32.64696,-1.51733,-0.71048,-11.65647
32.657,-1.20458,-0.61755,-11.40613
32.66704,-1.02292,-0.49919,-11.375
32.67707,-1.04971,-0.30047,-11.29764
32.68711,-1.04716,-0.0615,-11.03383
32.69715,-0.81672,0.04504,-10.75251
32.70718,-0.4971,0.03546,-10.34071
32.71722,-0.19064,-0.07227,-9.58938
32.72726,0.14724,-0.27967,-8.6905
32.73729,0.03202,-0.57446,-7.91104
32.74733,-0.45984,-0.75806,-7.87977
32.75737,-1.05285,-1.07949,-8.40305
32.7674,-1.51478,-1.42694,-8.9386
32.77744,-1.62043,-1.64736,-9.21857
32.78748,-1.57733,-1.76632,-9.21453
32.79751,-1.4443,-1.78084,-9.05337
32.80755,-1.17675,-1.73939,-8.84253
32.81759,-0.79413,-1.68971,-8.50989
32.82762,-0.51595,-1.68612,-8.22543
32.83766,-0.42362,-1.64811,-8.03329
32.8477,-0.45669,-1.52032,-8.00307
32.85773,-0.50473,-1.31965,-8.0939
32.86777,-0.36422,-1.14832,-8.21226
32.87781,-0.1236,-0.98866,-8.37522
32.88784,-0.08335,-0.86685,-8.59279
32.89788,-0.13123,-0.82869,-8.68975
32.90792,-0.13348,-0.94092,-8.8768
32.91796,-0.09562,-1.01559,-8.84388
32.92799,-0.08185,-1.11091,-8.8584
32.93803,0.05073,-1.22,-8.89476
32.94807,0.331,-1.32579,-8.84628
32.9581,0.72036,-1.5679,-8.68078
32.96814,1.12168,-1.94783,-8.29022
32.97818,1.37607,-2.40827,-7.96551
32.98821,1.51583,-2.75199,-7.30082
32.99825,1.4042,-2.88696,-6.54141
33.00829,1.04342,-2.98138,-6.07753
33.01832,0.49306,-3.11127,-6.11404
33.02836,-0.35898,-3.06727,-6.56834
33.0384,-1.2173,-2.85718,-7.35858
33.04843,-1.55907,-2.7237,-7.73671
33.05847,-1.56117,-2.63946,-8.11141
33.06851,-1.3412,-2.456,-8.53877
33.07854,-0.90426,-2.25743,-8.72103
33.08858,-0.391,-2.0433,-8.57917
33.09862,0.08484,-1.82348,-8.27002
33.10865,0.48887,-1.57254,-7.85912
33.11869,0.69148,-1.35602,-7.494
33.12873,0.70105,-1.16283,-7.14505
33.13876,0.67352,-1.05749,-6.85325
33.1488,0.64988,-1.08787,-6.80402
33.15884,0.63117,-1.18663,-6.87076
33.16887,0.71332,-1.26878,-7.13023
33.17891,0.9478,-1.4449,-7.34631
33.18895,1.1977,-1.62491,-7.31518
33.19899,1.51089,-1.75001,-7.24889
33.20902,1.84578,-1.85012,-7.18784
33.21906,1.91252,-1.92135,-6.999
33.2291,1.78622,-1.96175,-7.01441
33.23913,1.55518,-1.95412,-7.31384
33.24917,1.2384,-1.95741,-7.56418
33.25921,0.89798,-2.02714,-7.88889
33.26924,0.59496,-2.09852,-8.2977
33.27928,0.27249,-2.04106,-8.35681
33.28932,0.04534,-1.86508,-8.02267
33.29935,-0.04369,-1.72293,-7.68404
33.30939,-0.03816,-1.66831,-7.62478
33.31943,0.02693,-1.66442,-8.11874
33.32946,0.13871,-1.73116,-8.6911
33.3395,0.27892,-1.78802,-9.23877
33.34954,0.26621,-1.73385,-9.51037
33.35957,0.09996,-1.61055,-9.45336
33.36961,-0.12225,-1.52331,-9.30566
33.37965,-0.3286,-1.45193,-9.21857
33.38968,-0.48468,-1.46271,-9.37674
33.39972,-0.56967,-1.53827,-9.53087
33.40976,-0.57596,-1.68342,-9.58908
33.41979,-0.54573,-1.78877,-9.56813
33.42983,-0.51161,-1.86059,-9.56663
33.43987,-0.50607,-1.88917,-9.59716
33.4499,-0.51834,-1.93856,-9.4152
33.45994,-0.5993,-2.0026,-9.31374
33.46998,-0.75178,-2.11737,-9.22471
33.48002,-0.86461,-2.26117,-9.1891
33.49005,-0.96995,-2.38837,-9.26616
33.50009,-1.06183,-2.45196,-9.44198
33.51013,-1.07604,-2.45226,-9.67048
33.52016,-1.03983,-2.36861,-9.78705
33.5302,-0.95574,-2.28347,-9.71642
33.54024,-0.91952,-2.17798,-9.6606
33.55027,-0.95274,-2.05123,-9.57621
33.56031,-1.00152,-1.99168,-9.55556
33.57035,-1.06153,-1.96714,-9.62768
33.58038,-1.13216,-1.99347,-9.72599
33.59042,-1.14218,-2.03702,-9.75113
33.60046,-1.08487,-2.03732,-9.71552
33.61049,-0.96681,-2.0246,-9.63262
33.62053,-0.91054,-2.0243,-9.5379
33.63057,-0.8872,-1.98494,-9.54104
33.6406,-0.86535,-1.89336,-9.58474
33.65064,-0.82286,-1.8802,-9.62379
33.66068,-0.77303,-1.86374,-9.58773
33.67071,-0.78769,-1.85326,-9.49002
33.68075,-0.85024,-1.87661,-9.41625
33.69079,-0.9068,-1.94334,-9.35564
33.70082,-0.97654,-2.02804,-9.31195
33.71086,-0.9306,-2.02879,-9.22276
33.72153,-0.9306,-2.02879,-9.22276
33.73156,-0.7838,-1.97507,-9.13478
33.7416,-0.61247,-1.88513,-9.04335
33.75164,-0.43844,-1.83231,-8.87141
33.76167,-0.34596,-1.80418,-8.62915
33.77171,-0.31304,-1.80014,-8.39676
33.78175,-0.28356,-1.80583,-8.26104
33.79178,-0.28491,-1.88229,-8.24952
33.80182,-0.29628,-1.96339,-8.34275
33.81186,-0.34895,-2.00918,-8.24234
33.82189,-0.43964,-2.05018,-8.13056
33.83193,-0.54603,-2.08595,-8.0529
33.84197,-0.63252,-2.05572,-8.0508
33.852,-0.65422,-2.02774,-8.10332
33.86204,-0.6608,-1.93167,-8.15989
33.87208,-0.63461,-1.80852,-8.16049
33.88211,-0.56114,-1.7533,-7.97
33.89215,-0.44098,-1.77949,-7.77337
33.90219,-0.26351,-1.90908,-7.58378
33.91222,-0.15772,-2.04435,-7.36546
33.92226,-0.22655,-2.15388,-7.21193
33.9323,-0.40612,-2.19279,-7.28481
33.94233,-0.61501,-2.17423,-7.49475
33.95237,-0.7443,-2.13488,-7.68254
33.96241,-0.84815,-2.07368,-7.7828
33.97244,-1.01858,-1.98255,-7.79178
33.98248,-1.17136,-1.84294,-7.8045
33.99252,-1.18049,-1.7346,-7.83757
34.00255,-1.03624,-1.72397,-7.83488
34.01259,-0.85608,-1.73116,-7.9079
34.02263,-0.69447,-1.66831,-7.9263
34.03267,-0.5978,-1.58691,-7.89458
34.0427,-0.6807,-1.40375,-7.89368
34.05274,-0.84306,-1.16328,-7.91164
34.06277,-0.96651,-0.91249,-8.01294
34.07281,-1.01365,-0.70644,-8.38913
34.08285,-1.11091,-0.49395,-8.62167
34.09289,-1.14518,-0.40522,-8.73824
34.10292,-1.05554,-0.4341,-8.938
34.11296,-0.79906,-0.59675,-9.07148
34.123,-0.47375,-0.79368,-9.16919
34.13303,-0.34506,-0.92656,-9.11473
34.14307,-0.39938,-1.00751,-8.99277
34.15311,-0.7217,-1.08158,-8.96314
34.16314,-1.16014,-1.15161,-9.19673
34.17318,-1.44026,-1.19979,-9.50737
34.18322,-1.41408,-1.37098,-9.73961
34.19325,-1.28404,-1.50401,-9.96437
34.20329,-1.15326,-1.51014,-9.95524
34.21333,-1.02472,-1.41333,-9.76954
34.22336,-0.82914,-1.27491,-9.56364
34.2334,-0.50652,-1.27057,-9.63397
34.24344,-0.21174,-1.34419,-9.84586
34.25347,-0.05731,-1.41153,-9.97664
34.26351,-0.04684,-1.51598,-9.84541
34.27355,-0.13378,-1.5052,-9.41984
34.28358,-0.2457,-1.41931,-9.21334
34.29362,-0.29299,-1.42949,-9.28786
34.30366,-0.20904,-1.62372,-9.53446
34.31369,-0.06988,-1.94948,-9.93324
34.32373,0.00284,-2.21329,-10.00327
34.33377,-0.01152,-2.3517,-9.84391
34.3438,-0.08604,-2.38881,-9.67542
34.35384,-0.21727,-2.35395,-9.39096
34.36388,-0.33294,-2.26746,-9.34023
34.37392,-0.33788,-2.23918,-9.77044
34.38395,-0.31289,-2.22526,-10.25766
34.39399,-0.23897,-2.55237,-10.63744
